time,seconds_elapsed,z,y,x
1763693853296675300,0.15267529296875,8.986584663391113,3.923293113708496,-0.13945038616657257
1763693853306262500,0.162262451171875,8.993565559387207,3.90524959564209,-0.1876266449689865
1763693853315849000,0.171848876953125,8.981077194213867,3.930302143096924,-0.2517513334751129
1763693853325436200,0.181436279296875,8.930414199829102,4.0407562255859375,-0.3006349802017212
1763693853335024000,0.191024169921875,8.889732360839844,4.12727689743042,-0.32958123087882996
1763693853344611600,0.200611572265625,8.873368263244629,4.158847808837891,-0.3710828125476837
1763693853354197800,0.21019775390625,8.886528968811035,4.126328468322754,-0.41641944646835327
1763693853363785200,0.21978515625,8.918904304504395,4.05106258392334,-0.4608847200870514
1763693853373373200,0.229373291015625,8.962565422058105,3.9475507736206055,-0.5095619559288025
1763693853382960400,0.23896044921875,9.013925552368164,3.820733070373535,-0.5670449733734131
1763693853392546800,0.248546875,9.059983253479004,3.704186201095581,-0.6050583124160767
1763693853402134300,0.25813427734375,9.099715232849121,3.5977683067321777,-0.6493205428123474
1763693853411722200,0.26772216796875,9.135563850402832,3.4961817264556885,-0.6989766359329224
1763693853421309400,0.277309326171875,9.171018600463867,3.3908307552337646,-0.7517196536064148
1763693853430895900,0.286895751953125,9.208022117614746,3.2739641666412354,-0.814791202545166
1763693853440483000,0.296483154296875,9.245251655578613,3.1555328369140625,-0.8592578172683716
1763693853450071300,0.3060712890625,9.280839920043945,3.042487621307373,-0.8829898834228516
1763693853459658500,0.315658447265625,9.313281059265137,2.940319061279297,-0.8875352144241333
1763693853469245000,0.325244873046875,9.34149169921875,2.8565707206726074,-0.8642472624778748
1763693853478832000,0.33483203125,9.362686157226562,2.8003323078155518,-0.817690908908844
1763693853488420400,0.34442041015625,9.374935150146484,2.7765274047851562,-0.7562183737754822
1763693853498007600,0.354007568359375,9.379190444946289,2.7820255756378174,-0.6793404221534729
1763693853507594000,0.363593994140625,9.376016616821289,2.813438653945923,-0.5875930786132812
1763693853517181200,0.37318115234375,9.366098403930664,2.865323066711426,-0.48632538318634033
1763693853526769200,0.38276904296875,9.349159240722656,2.9351601600646973,-0.38528016209602356
1763693853536356600,0.392356689453125,9.326446533203125,3.016852617263794,-0.2939136326313019
1763693853545943000,0.401943115234375,9.301244735717773,3.0996391773223877,-0.22241778671741486
1763693853555530200,0.4115302734375,9.274931907653809,3.1810121536254883,-0.16487684845924377
1763693853565118200,0.4211181640625,9.249451637268066,3.2566466331481934,-0.11081503331661224
1763693853574705400,0.430705322265625,9.227572441101074,3.3194611072540283,-0.05877973511815071
1763693853584291800,0.440291748046875,9.208733558654785,3.371875762939453,-0.008285008370876312
1763693853593879300,0.44987939453125,9.192378044128418,3.4159419536590576,0.04363413527607918
1763693853603467300,0.45946728515625,9.177583694458008,3.4542593955993652,0.10225140303373337
1763693853613054500,0.469054443359375,9.16269588470459,3.4909780025482178,0.168757364153862
1763693853622641000,0.478640869140625,9.147178649902344,3.526994228363037,0.2445913404226303
1763693853632228400,0.488228271484375,9.128728866577148,3.5670342445373535,0.33607780933380127
1763693853641816300,0.49781640625,9.104686737060547,3.6163628101348877,0.4438137710094452
1763693853651403500,0.507403564453125,9.075607299804688,3.673149585723877,0.5582961440086365
1763693853660990000,0.516989990234375,9.045954704284668,3.7278032302856445,0.6667543053627014
1763693853670577200,0.5265771484375,9.016258239746094,3.777952194213867,0.7775137424468994
1763693853680165400,0.536165283203125,8.989765167236328,3.815764904022217,0.8913143873214722
1763693853689752600,0.545752685546875,8.966961860656738,3.8404183387756348,1.007554054260254
1763693853699339000,0.555339111328125,8.949712753295898,3.8509840965270996,1.114877700805664
1763693853708926200,0.56492626953125,8.940799713134766,3.844935655593872,1.203730583190918
1763693853718514200,0.57451416015625,8.941161155700684,3.825382709503174,1.2619315385818481
1763693853728101600,0.5841015625,8.944783210754395,3.81339168548584,1.2725094556808472
1763693853737687800,0.593687744140625,8.948453903198242,3.821398973464966,1.2216603755950928
1763693853747275300,0.603275146484375,8.9528169631958,3.8463611602783203,1.1058717966079712
1763693853756863200,0.61286328125,8.960158348083496,3.8743388652801514,0.9356538653373718
1763693853766450400,0.622450439453125,8.963440895080566,3.9093642234802246,0.7375432252883911
1763693853776036900,0.632036865234375,8.96281909942627,3.9426980018615723,0.5416569709777832
1763693853785624300,0.641624267578125,8.958579063415527,3.9693686962127686,0.3979337811470032
1763693853795212300,0.65121240234375,8.953410148620605,3.9867947101593018,0.3350956439971924
1763693853804799500,0.660799560546875,8.950098991394043,3.9929044246673584,0.35047072172164917
1763693853814386000,0.670385986328125,8.949089050292969,3.9888288974761963,0.41647088527679443
1763693853823973400,0.679973388671875,8.95259952545166,3.9725229740142822,0.4903295636177063
1763693853833561300,0.689561279296875,8.959725379943848,3.9483275413513184,0.551745593547821
1763693853843148500,0.6991484375,8.971695899963379,3.9162685871124268,0.5847209095954895
1763693853852735000,0.70873486328125,8.988667488098145,3.8779428005218506,0.5794949531555176
1763693853862322200,0.718322265625,9.008654594421387,3.8362462520599365,0.5456514954566956
1763693853871910400,0.727910400390625,9.030667304992676,3.791151762008667,0.49456262588500977
1763693853881497600,0.73749755859375,9.053768157958984,3.742532730102539,0.4394647777080536
1763693853891084000,0.747083984375,9.077510833740234,3.689979314804077,0.3914415240287781
1763693853900671200,0.756671142578125,9.102096557617188,3.6321206092834473,0.3604356348514557
1763693853910259200,0.76625927734375,9.127812385559082,3.567903757095337,0.3514058291912079
1763693853919846700,0.7758466796875,9.153982162475586,3.4987192153930664,0.3660028576850891
1763693853929433000,0.78543310546875,9.180177688598633,3.425603151321411,0.3999585509300232
1763693853939020300,0.795020263671875,9.20626163482666,3.3494555950164795,0.443025678396225
1763693853948608300,0.804608154296875,9.233009338378906,3.2694733142852783,0.48215121030807495
1763693853958195700,0.81419580078125,9.260945320129395,3.185645580291748,0.506898045539856
1763693853967782000,0.823781982421875,9.289717674255371,3.099402904510498,0.5150050520896912
1763693853977369300,0.833369384765625,9.31816577911377,3.0136356353759766,0.5100755095481873
1763693853986957300,0.842957275390625,9.344399452209473,2.9324710369110107,0.5031898021697998
1763693853996544500,0.85254443359375,9.367246627807617,2.8579373359680176,0.50721275806427
1763693854006131000,0.862130859375,9.386716842651367,2.7892448902130127,0.5291998982429504
1763693854015718400,0.871718505859375,9.404449462890625,2.720257520675659,0.5717782974243164
1763693854025306400,0.881306396484375,9.41885757446289,2.6563780307769775,0.6317964792251587
1763693854034893600,0.8908935546875,9.428544044494629,2.6029093265533447,0.705554723739624
1763693854044480000,0.90047998046875,9.434794425964355,2.5585618019104004,0.7802622318267822
1763693854054067200,0.910067138671875,9.439743995666504,2.519326686859131,0.8453389406204224
1763693854063655400,0.919655517578125,9.445116996765137,2.4797306060791016,0.9006051421165466
1763693854073242600,0.92924267578125,9.451875686645508,2.4350059032440186,0.9503558874130249
1763693854082829000,0.9388291015625,9.459919929504395,2.383498191833496,0.9996264576911926
1763693854092416300,0.948416259765625,9.468718528747559,2.3249387741088867,1.0528126955032349
1763693854102004200,0.958004150390625,9.477272033691406,2.2606236934661865,1.1141222715377808
1763693854111591700,0.967591796875,9.48476505279541,2.1935389041900635,1.182368278503418
1763693854121178000,0.97717822265625,9.490652084350586,2.128798484802246,1.2514458894729614
1763693854130765300,0.986765380859375,9.494813919067383,2.0716989040374756,1.314136266708374
1763693854140353300,0.996353271484375,9.497746467590332,2.0260097980499268,1.3632566928863525
1763693854149940500,1.0059404296875,9.500675201416016,1.9921529293060303,1.3924428224563599
1763693854159527000,1.01552685546875,9.503981590270996,1.969830870628357,1.4015992879867554
1763693854169114400,1.0251142578125,9.507231712341309,1.95823073387146,1.3957977294921875
1763693854178702300,1.034702392578125,9.50925064086914,1.9573242664337158,1.3832671642303467
1763693854188289500,1.04428955078125,9.509129524230957,1.9669495820999146,1.3703889846801758
1763693854197876000,1.0538759765625,9.506698608398438,1.98568594455719,1.3601940870285034
1763693854207463400,1.06346337890625,9.501959800720215,2.0118565559387207,1.3548318147659302
1763693854217051400,1.073051513671875,9.494682312011719,2.0450122356414795,1.3562183380126953
1763693854226638600,1.082638671875,9.484930038452148,2.0836098194122314,1.3656704425811768
1763693854236225000,1.09222509765625,9.473281860351562,2.1260597705841064,1.3810104131698608
1763693854245812200,1.101812255859375,9.459553718566895,2.1728897094726562,1.402063250541687
1763693854255400400,1.111400390625,9.444482803344727,2.2224011421203613,1.425858974456787
1763693854264987600,1.120987548828125,9.430347442626953,2.2718796730041504,1.4413535594940186
1763693854274574000,1.130573974609375,9.418814659118652,2.3184077739715576,1.4426703453063965
1763693854284161300,1.140161376953125,9.409804344177246,2.3592917919158936,1.435166358947754
1763693854293749200,1.149749267578125,9.402515411376953,2.3934409618377686,1.426369309425354
1763693854303336700,1.159336669921875,9.39574909210205,2.421168804168701,1.4241580963134766
1763693854312923100,1.168923095703125,9.388435363769531,2.444312810897827,1.4328285455703735
1763693854322510300,1.17851025390625,9.379928588867188,2.465339183807373,1.4523885250091553
1763693854332098300,1.188098388671875,9.369827270507812,2.486989974975586,1.4804068803787231
1763693854341685800,1.197685791015625,9.3579683303833,2.5117194652557373,1.5133012533187866
1763693854351272000,1.20727197265625,9.345024108886719,2.540856122970581,1.5443333387374878
1763693854360859400,1.216859375,9.33263111114502,2.5718746185302734,1.5677517652511597
1763693854370447400,1.226447265625,9.32258129119873,2.600193738937378,1.5807833671569824
1763693854380034600,1.23603466796875,9.315813064575195,2.621198892593384,1.585984468460083
1763693854389621000,1.24562109375,9.312891006469727,2.6307716369628906,1.5872875452041626
1763693854399208400,1.25520849609375,9.314553260803223,2.626800060272217,1.5841132402420044
1763693854408796400,1.26479638671875,9.320987701416016,2.6106622219085693,1.5729048252105713
1763693854418383600,1.274383544921875,9.33084487915039,2.587778329849243,1.552138090133667
1763693854427970000,1.283969970703125,9.341909408569336,2.5641708374023438,1.5245170593261719
1763693854437557200,1.29355712890625,9.352078437805176,2.5450100898742676,1.4939651489257812
1763693854447145500,1.3031455078125,9.359931945800781,2.5339009761810303,1.4633493423461914
1763693854456732700,1.312732666015625,9.364556312561035,2.5325474739074707,1.4358493089675903
1763693854466319000,1.322319091796875,9.365507125854492,2.53994083404541,1.4164623022079468
1763693854475906300,1.33190625,9.362715721130371,2.5541961193084717,1.4092605113983154
1763693854485494300,1.341494384765625,9.356858253479004,2.5720419883728027,1.4156975746154785
1763693854495081700,1.351081787109375,9.348567008972168,2.5895509719848633,1.4383717775344849
1763693854504668200,1.360668212890625,9.338766098022461,2.6020379066467285,1.478926181793213
1763693854514255400,1.37025537109375,9.328829765319824,2.60514497756958,1.5351074934005737
1763693854523843300,1.37984326171875,9.320272445678711,2.599412202835083,1.5956088304519653
1763693854533430500,1.389430419921875,9.315268516540527,2.589315891265869,1.6406080722808838
1763693854543017000,1.399016845703125,9.314567565917969,2.580554246902466,1.6583002805709839
1763693854552604400,1.4086044921875,9.316426277160645,2.577655076980591,1.6523594856262207
1763693854562192400,1.4181923828125,9.318869590759277,2.5827345848083496,1.6304987668991089
1763693854571779600,1.427779541015625,9.320027351379395,2.5966670513153076,1.6014987230300903
1763693854581366000,1.437365966796875,9.318008422851562,2.619502067565918,1.5758538246154785
1763693854590953500,1.446953369140625,9.310945510864258,2.6511495113372803,1.5646390914916992
1763693854600541400,1.45654150390625,9.297844886779785,2.6915910243988037,1.5734697580337524
1763693854610128600,1.466128662109375,9.279232025146484,2.740208864212036,1.5992141962051392
1763693854619715000,1.475715087890625,9.256595611572266,2.795123815536499,1.6349669694900513
1763693854629302300,1.48530224609375,9.231975555419922,2.852414608001709,1.6747347116470337
1763693854638890500,1.494890380859375,9.20826530456543,2.9059228897094727,1.7128429412841797
1763693854648477700,1.504477783203125,9.188563346862793,2.9487109184265137,1.745222806930542
1763693854658064100,1.514064208984375,9.175192832946777,2.9751551151275635,1.7705031633377075
1763693854667651300,1.5236513671875,9.169596672058105,2.9821465015411377,1.7876454591751099
1763693854677239600,1.533239501953125,9.172159194946289,2.971141815185547,1.7928214073181152
1763693854686826800,1.54282666015625,9.181753158569336,2.9471259117126465,1.783328890800476
1763693854696413200,1.5524130859375,9.196192741394043,2.91538667678833,1.7609546184539795
1763693854706000400,1.56200048828125,9.213123321533203,2.8791396617889404,1.7318493127822876
1763693854715588400,1.57158837890625,9.230793952941895,2.84090256690979,1.7006187438964844
1763693854725175800,1.58117578125,9.2479829788208,2.8041555881500244,1.6679028272628784
1763693854734762000,1.590761962890625,9.263273239135742,2.773850679397583,1.6333765983581543
1763693854744349400,1.600349365234375,9.27527141571045,2.755362033843994,1.5961549282073975
1763693854753937400,1.6099375,9.28271198272705,2.753187656402588,1.556143879890442
1763693854763524600,1.619524658203125,9.285087585449219,2.770190954208374,1.5111507177352905
1763693854773111000,1.629111083984375,9.284212112426758,2.8041152954101562,1.452836275100708
1763693854782698500,1.638698486328125,9.282428741455078,2.84780216217041,1.377286672592163
1763693854792286500,1.648286376953125,9.2805757522583,2.8927836418151855,1.2934842109680176
1763693854801873700,1.657873779296875,9.278753280639648,2.9313104152679443,1.2175958156585693
1763693854811460000,1.667460205078125,9.277565002441406,2.958606004714966,1.159234881401062
1763693854821047300,1.67704736328125,9.277654647827148,2.9741880893707275,1.1179094314575195
1763693854830635500,1.686635498046875,9.279644012451172,2.980043411254883,1.0853204727172852
1763693854840222700,1.69622265625,9.284089088439941,2.97948956489563,1.048197865486145
1763693854849809200,1.70580908203125,9.291622161865234,2.9751527309417725,0.9922738671302795
1763693854859396400,1.715396240234375,9.302205085754395,2.9683215618133545,0.9101806879043579
1763693854868984300,1.724984375,9.31400203704834,2.9601902961730957,0.8105757236480713
1763693854878571800,1.73457177734375,9.324925422668457,2.952357530593872,0.7069163918495178
1763693854888158200,1.744158203125,9.333378791809082,2.9481897354125977,0.6054738759994507
1763693854897745400,1.753745361328125,9.337646484375,2.9525208473205566,0.5112581253051758
1763693854907333400,1.76333349609375,9.336750030517578,2.9686310291290283,0.42745593190193176
1763693854916920600,1.772920654296875,9.330057144165039,2.9986352920532227,0.3586355447769165
1763693854926507300,1.78250732421875,9.317076683044434,3.0438308715820312,0.31233879923820496
1763693854936094500,1.792094482421875,9.299179077148438,3.100674629211426,0.2854268550872803
1763693854945682400,1.801682373046875,9.27861213684082,3.162930488586426,0.27129846811294556
1763693854955269600,1.81126953125,9.258162498474121,3.2226858139038086,0.2666647434234619
1763693854964856000,1.82085595703125,9.240375518798828,3.273935556411743,0.25921791791915894
1763693854974443500,1.830443603515625,9.226980209350586,3.3127269744873047,0.24302639067173004
1763693854984031500,1.840031494140625,9.208849906921387,3.3661162853240967,0.19168721139431
1763693854993618700,1.84961865234375,9.172551155090332,3.469061851501465,-0.016791775822639465
1763693855003205000,1.859205078125,9.159456253051758,3.5035271644592285,-0.006502336356788874
1763693855012792600,1.86879248046875,9.167924880981445,3.4809677600860596,-0.04921286180615425
1763693855022380500,1.878380615234375,9.176962852478027,3.4540278911590576,-0.15306083858013153
1763693855031967700,1.8879677734375,9.177779197692871,3.441096782684326,-0.31242573261260986
1763693855041554200,1.89755419921875,9.169078826904297,3.4459609985351562,-0.47301188111305237
1763693855051141400,1.907141357421875,9.155566215515137,3.468226432800293,-0.563399612903595
1763693855060729600,1.9167294921875,9.14323902130127,3.4951975345611572,-0.595974862575531
1763693855070316800,1.92631689453125,9.129586219787598,3.5310709476470947,-0.593780517578125
1763693855079903200,1.9359033203125,9.114665985107422,3.572650194168091,-0.5739423632621765
1763693855089490400,1.945490478515625,9.099047660827637,3.6165404319763184,-0.5462114810943604
1763693855099078400,1.955078369140625,9.085277557373047,3.6512999534606934,-0.5441728830337524
1763693855108665900,1.964665771484375,9.071282386779785,3.678032875061035,-0.59522944688797
1763693855118252000,1.974251953125,9.053396224975586,3.70100998878479,-0.7133907079696655
1763693855127839500,1.983839599609375,9.025933265686035,3.731459379196167,-0.8826914429664612
1763693855137427500,1.993427490234375,8.990496635437012,3.7838010787963867,-1.0120373964309692
1763693855147014700,2.0030146484375,8.960187911987305,3.8911659717559814,-0.8627027869224548
1763693855156601000,2.01260107421875,8.931404113769531,3.9920361042022705,-0.6812177896499634
1763693855166188500,2.0221884765625,8.880337715148926,4.117079257965088,-0.5997017621994019
1763693855175776500,2.031776611328125,8.824775695800781,4.23706579208374,-0.5839429497718811
1763693855185363700,2.04136376953125,8.778532981872559,4.33101224899292,-0.5916702747344971
1763693855194950100,2.0509501953125,8.746748924255371,4.400901794433594,-0.5448268055915833
1763693855204537300,2.060537353515625,8.729901313781738,4.445220470428467,-0.44635072350502014
1763693855214125600,2.07012548828125,8.723941802978516,4.46557092666626,-0.349140465259552
1763693855223712800,2.079712646484375,8.727124214172363,4.46584415435791,-0.25286993384361267
1763693855233299200,2.08929931640625,8.739562034606934,4.4459357261657715,-0.15523797273635864
1763693855242886400,2.098886474609375,8.761061668395996,4.405336856842041,-0.08477605879306793
1763693855252474600,2.108474609375,8.783177375793457,4.361835479736328,-0.024324463680386543
1763693855262061800,2.118061767578125,8.803670883178711,4.320292949676514,0.028948519378900528
1763693855271648300,2.127648193359375,8.824018478393555,4.278080463409424,0.07160879671573639
1763693855281235500,2.1372353515625,8.850555419921875,4.22318696975708,0.05231049656867981
1763693855290823400,2.146823486328125,8.892034530639648,4.134683609008789,-0.08057062327861786
1763693855300410600,2.15641064453125,8.940394401550293,4.0201416015625,-0.2796441316604614
1763693855309997300,2.165997314453125,8.974209785461426,3.9448366165161133,-0.2687200605869293
1763693855319584500,2.17558447265625,9.011689186096191,3.8596644401550293,-0.2506658434867859
1763693855329172500,2.18517236328125,9.02928352355957,3.820683717727661,-0.2116784304380417
1763693855338759700,2.194759765625,9.041725158691406,3.794786214828491,-0.13110820949077606
1763693855348346000,2.20434619140625,9.050464630126953,3.7759547233581543,-0.04049159958958626
1763693855357933600,2.21393359375,9.06065559387207,3.7515335083007812,0.029921244829893112
1763693855367521500,2.223521484375,9.07104778289795,3.725639820098877,0.07793921232223511
1763693855377108700,2.233108642578125,9.079578399658203,3.70381498336792,0.11573880910873413
1763693855386695200,2.242695068359375,9.0880765914917,3.682175874710083,0.13725443184375763
1763693855396282600,2.25228271484375,9.09848403930664,3.6565170288085938,0.1336084008216858
1763693855405870600,2.26187060546875,9.111953735351562,3.6237032413482666,0.10698580741882324
1763693855415457800,2.271457763671875,9.128257751464844,3.5833678245544434,0.06919053196907043
1763693855425044200,2.281044189453125,9.14660930633545,3.5367581844329834,0.035378437489271164
1763693855434631400,2.29063134765625,9.166217803955078,3.4857847690582275,0.011760392226278782
1763693855444219600,2.3002197265625,9.187060356140137,3.430492877960205,-0.0051757460460066795
1763693855453806800,2.309806884765625,9.209678649902344,3.369215250015259,-0.02450413629412651
1763693855463393300,2.319393310546875,9.234598159790039,3.299938917160034,-0.05451173335313797
1763693855472980500,2.32898046875,9.262064933776855,3.2210705280303955,-0.09617497771978378
1763693855482568400,2.338568359375,9.291886329650879,3.132047414779663,-0.14665170013904572
1763693855492156000,2.348156005859375,9.323433876037598,3.0333096981048584,-0.20737288892269135
1763693855501742000,2.3577421875,9.35576057434082,2.9255826473236084,-0.28474652767181396
1763693855511329500,2.36732958984375,9.387505531311035,2.8099172115325928,-0.38664481043815613
1763693855520917500,2.37691748046875,9.416775703430176,2.6880557537078857,-0.5187174677848816
1763693855530504700,2.386504638671875,9.441200256347656,2.5629308223724365,-0.6822821497917175
1763693855540091100,2.396091064453125,9.458364486694336,2.440614700317383,-0.8678301572799683
1763693855549678600,2.4056787109375,9.467681884765625,2.326584815979004,-1.0584923028945923
1763693855559266600,2.4152666015625,9.471213340759277,2.222654104232788,-1.2354450225830078
1763693855568853800,2.424853759765625,9.472565650939941,2.128030776977539,-1.382890224456787
1763693855578440200,2.434440185546875,9.47408676147461,2.0424628257751465,-1.4967962503433228
1763693855588027600,2.444027587890625,9.474797248840332,1.9684168100357056,-1.588692545890808
1763693855597615600,2.45361572265625,9.47503662109375,1.9107264280319214,-1.65626060962677
1763693855607202800,2.463202880859375,9.475176811218262,1.8733179569244385,-1.697670340538025
1763693855616789200,2.472789306640625,9.47049617767334,1.8497166633605957,-1.748899221420288
1763693855626376700,2.482376708984375,9.465014457702637,1.8510369062423706,-1.7769533395767212
1763693855635964700,2.491964599609375,9.45386028289795,1.8638359308242798,-1.822370171546936
1763693855645551900,2.5015517578125,9.442075729370117,1.8630406856536865,-1.8832629919052124
1763693855655138300,2.51113818359375,9.434517860412598,1.8334749937057495,-1.9490063190460205
1763693855664725500,2.5207255859375,9.429729461669922,1.7727041244506836,-2.0268499851226807
1763693855674313700,2.530313720703125,9.42370891571045,1.6815630197525024,-2.129892587661743
1763693855683901000,2.53990087890625,9.42386245727539,1.5807764530181885,-2.2050774097442627
1763693855693487400,2.5494873046875,9.435393333435059,1.4701001644134521,-2.2321624755859375
1763693855703074600,2.559074462890625,9.452683448791504,1.3554425239562988,-2.231576919555664
1763693855712662500,2.56866259765625,9.46860408782959,1.2418526411056519,-2.2301840782165527
1763693855722250000,2.57825,9.480278968811035,1.132261872291565,-2.2389023303985596
1763693855731836200,2.587836181640625,9.48825740814209,1.026828408241272,-2.255873203277588
1763693855741423600,2.597423583984375,9.492621421813965,0.9261634945869446,-2.280951738357544
1763693855751011600,2.607011474609375,9.494694709777832,0.8315784931182861,-2.308600902557373
1763693855760598800,2.616598876953125,9.496956825256348,0.7476649880409241,-2.32791805267334
1763693855770185200,2.626185302734375,9.50172233581543,0.6754199266433716,-2.3305485248565674
1763693855779772700,2.635772705078125,9.508028030395508,0.614240825176239,-2.3217458724975586
1763693855789360600,2.645360595703125,9.514060974121094,0.5653811097145081,-2.30941104888916
1763693855798947800,2.65494775390625,9.518531799316406,0.5278680920600891,-2.2998478412628174
1763693855808534300,2.6645341796875,9.519418716430664,0.501692533493042,-2.302035331726074
1763693855818121500,2.67412158203125,9.516100883483887,0.48653435707092285,-2.31894588470459
1763693855827709700,2.683709716796875,9.506614685058594,0.47928115725517273,-2.3590173721313477
1763693855837297000,2.693296875,9.48766803741455,0.4811819791793823,-2.4337222576141357
1763693855846883300,2.70288330078125,9.456709861755371,0.5062158107757568,-2.546522378921509
1763693855856470500,2.712470458984375,9.408551216125488,0.5747661590576172,-2.705401659011841
1763693855866058800,2.722058837890625,9.341167449951172,0.6934686899185181,-2.9038023948669434
1763693855875646000,2.73164599609375,9.257338523864746,0.853550136089325,-3.121462345123291
1763693855885232400,2.741232421875,9.155771255493164,1.0519859790802002,-3.351952314376831
1763693855894819600,2.750819580078125,9.050850868225098,1.2685072422027588,-3.555752992630005
1763693855904407600,2.760407470703125,8.973907470703125,1.463226079940796,-3.6740071773529053
1763693855913995000,2.7699951171875,8.935338020324707,1.617333173751831,-3.703289270401001
1763693855923581400,2.77958154296875,8.92221736907959,1.7123322486877441,-3.69219970703125
1763693855933168600,2.789168701171875,8.919734001159668,1.7328752279281616,-3.6886162757873535
1763693855942756600,2.798756591796875,8.913192749023438,1.6820027828216553,-3.727769136428833
1763693855952343800,2.80834375,8.893446922302246,1.576735258102417,-3.8198046684265137
1763693855961930200,2.81793017578125,8.862119674682617,1.441047191619873,-3.944186210632324
1763693855971517700,2.827517578125,8.824881553649902,1.2917569875717163,-4.077159404754639
1763693855981105700,2.837105712890625,8.781517028808594,1.1433885097503662,-4.212838649749756
1763693855990692900,2.84669287109375,8.731657981872559,1.0093597173690796,-4.3485307693481445
1763693856000279300,2.856279296875,8.677231788635254,0.9023565649986267,-4.479040145874023
1763693856009866800,2.86586669921875,8.61868667602539,0.8292707800865173,-4.604447364807129
1763693856019454700,2.875454833984375,8.552029609680176,0.7930331826210022,-4.733314514160156
1763693856029042000,2.8850419921875,8.474751472473145,0.796201765537262,-4.869809150695801
1763693856038628400,2.89462841796875,8.39260482788086,0.8358048796653748,-5.003601551055908
1763693856048215600,2.904215576171875,8.312017440795898,0.9033121466636658,-5.124917507171631
1763693856057803800,2.9138037109375,8.237360954284668,0.9912840723991394,-5.228157043457031
1763693856067391000,2.923390869140625,8.166627883911133,1.0941327810287476,-5.317842483520508
1763693856076977400,2.932977294921875,8.094246864318848,1.2054435014724731,-5.403745651245117
1763693856086564600,2.942564697265625,8.022637367248535,1.3202110528945923,-5.483130931854248
1763693856096152600,2.952152587890625,7.966129779815674,1.4356346130371094,-5.536253929138184
1763693856105740000,2.961739990234375,7.927606582641602,1.5433311462402344,-5.562515735626221
1763693856115326500,2.971326416015625,7.89708948135376,1.6224446296691895,-5.583371639251709
1763693856124913700,2.98091357421875,7.8704447746276855,1.6651992797851562,-5.60835075378418
1763693856134501600,2.990501708984375,7.845118045806885,1.6740491390228271,-5.641105651855469
1763693856144089000,3.000089111328125,7.822812080383301,1.6510111093521118,-5.678745269775391
1763693856153675300,3.00967529296875,7.805922031402588,1.5993664264678955,-5.716641902923584
1763693856163262700,3.0192626953125,7.796319961547852,1.5268676280975342,-5.749474048614502
1763693856172850700,3.0288505859375,7.797418117523193,1.4397605657577515,-5.770420074462891
1763693856182438000,3.03843798828125,7.807984352111816,1.3434655666351318,-5.779349327087402
1763693856192024300,3.0480244140625,7.824367523193359,1.24370539188385,-5.7795209884643555
1763693856201611800,3.05761181640625,7.846879482269287,1.1390929222106934,-5.770557880401611
1763693856211199700,3.06719970703125,7.874466896057129,1.0253939628601074,-5.754279613494873
1763693856220787000,3.076786865234375,7.903632640838623,0.9002647399902344,-5.735199928283691
1763693856230373400,3.086373291015625,7.9329094886779785,0.7548571228981018,-5.715726852416992
1763693856239960600,3.095960693359375,7.962514400482178,0.572832465171814,-5.695667266845703
1763693856249548800,3.105548828125,7.982746124267578,0.3517230153083801,-5.685283184051514
1763693856259136000,3.115135986328125,7.988423824310303,0.0985201746225357,-5.687332630157471
1763693856268722400,3.124722412109375,7.97573184967041,-0.17634563148021698,-5.703244686126709
1763693856278309600,3.1343095703125,7.94473934173584,-0.45965564250946045,-5.7306389808654785
1763693856287897600,3.143897705078125,7.899618625640869,-0.7362902760505676,-5.764051914215088
1763693856297485000,3.153485107421875,7.845013618469238,-0.9914438128471375,-5.800274848937988
1763693856307071500,3.163071533203125,7.785675525665283,-1.2122108936309814,-5.838166236877441
1763693856316658700,3.17265869140625,7.725712299346924,-1.3928239345550537,-5.877396106719971
1763693856326246700,3.18224658203125,7.664727687835693,-1.538663625717163,-5.920713901519775
1763693856335834000,3.191834228515625,7.6011457443237305,-1.6638438701629639,-5.968633651733398
1763693856345420500,3.201420654296875,7.533632278442383,-1.7837605476379395,-6.019382953643799
1763693856355007700,3.2110078125,7.45878267288208,-1.9109300374984741,-6.073326587677002
1763693856364595700,3.220595703125,7.375556945800781,-2.0521130561828613,-6.128652572631836
1763693856374183000,3.230182861328125,7.287015914916992,-2.2090604305267334,-6.179792881011963
1763693856383769300,3.239769287109375,7.1996073722839355,-2.3771610260009766,-6.219738006591797
1763693856393356800,3.249356689453125,7.1195855140686035,-2.5472278594970703,-6.244478225708008
1763693856402944800,3.25894482421875,7.050950050354004,-2.7102067470550537,-6.253740310668945
1763693856412532000,3.268531982421875,6.995263576507568,-2.860544443130493,-6.249316692352295
1763693856422118400,3.278118408203125,6.952274322509766,-2.9963579177856445,-6.2336273193359375
1763693856431705900,3.287705810546875,6.918584823608398,-3.1185715198516846,-6.211124897003174
1763693856441293800,3.2972939453125,6.889016151428223,-3.229562282562256,-6.187226295471191
1763693856450881000,3.306881103515625,6.857794761657715,-3.333808183670044,-6.166584014892578
1763693856460467500,3.316467529296875,6.819942951202393,-3.434849977493286,-6.153095245361328
1763693856470054700,3.3260546875,6.7716169357299805,-3.535381555557251,-6.149526119232178
1763693856479643000,3.335642822265625,6.71095609664917,-3.638209581375122,-6.156044960021973
1763693856489230000,3.34522998046875,6.6366777420043945,-3.7464475631713867,-6.171630382537842
1763693856498816500,3.35481640625,6.549328327178955,-3.8617074489593506,-6.1938605308532715
1763693856508403700,3.36440380859375,6.449147701263428,-3.9825854301452637,-6.222370624542236
1763693856517991700,3.37399169921875,6.33651065826416,-4.1054277420043945,-6.258152961730957
1763693856527579100,3.3835791015625,6.214858055114746,-4.225208282470703,-6.300281047821045
1763693856537165600,3.39316552734375,6.089997291564941,-4.336792945861816,-6.3462233543396
1763693856546752800,3.402752685546875,5.965954303741455,-4.4366960525512695,-6.394803047180176
1763693856556340700,3.4123408203125,5.843458652496338,-4.524715900421143,-6.446032524108887
1763693856565928200,3.42192822265625,5.723306179046631,-4.6015706062316895,-6.499207973480225
1763693856575514600,3.4315146484375,5.608480930328369,-4.6677565574646,-6.551898956298828
1763693856585101800,3.441101806640625,5.501340866088867,-4.723784923553467,-6.602385997772217
1763693856594689800,3.450689697265625,5.402634143829346,-4.771502494812012,-6.649412631988525
1763693856604277000,3.460277099609375,5.31308650970459,-4.8128132820129395,-6.691661357879639
1763693856613863400,3.469863525390625,5.231334209442139,-4.84944486618042,-6.729518413543701
1763693856633038800,3.489038818359375,5.077836513519287,-4.9127888679504395,-6.800770282745361
1763693856642626000,3.4986259765625,5.001165390014648,-4.939043998718262,-6.838462829589844
1763693856652212500,3.50821240234375,4.9235687255859375,-4.961826801300049,-6.878163814544678
1763693856661800000,3.517800048828125,4.847657680511475,-4.981141567230225,-6.918007850646973
1763693856680975000,3.53697509765625,4.7160162925720215,-5.000644683837891,-6.994507789611816
1763693856690561500,3.5465615234375,4.665768146514893,-4.997270107269287,-7.030524253845215
1763693856700148700,3.556148681640625,4.629317760467529,-4.985958099365234,-7.062580585479736
1763693856709737000,3.565737060546875,4.6084184646606445,-4.969204902648926,-7.088008880615234
1763693856719324200,3.57532421875,4.603267669677734,-4.949063301086426,-7.10542631149292
1763693856728910600,3.58491064453125,4.6136393547058105,-4.927379131317139,-7.113765716552734
1763693856738497800,3.594497802734375,4.635217189788818,-4.9051079750061035,-7.115128517150879
1763693856748086000,3.6040859375,4.662872314453125,-4.883325099945068,-7.1120429039001465
1763693856757673200,3.613673095703125,4.6938090324401855,-4.863849639892578,-7.105034828186035
1763693856767259600,3.623259765625,4.725645065307617,-4.848264217376709,-7.094575881958008
1763693856776846800,3.632846923828125,4.754834175109863,-4.836296558380127,-7.0832319259643555
1763693856786434800,3.642434814453125,4.779063701629639,-4.825359344482422,-7.074379920959473
1763693856796022300,3.652022216796875,4.797279357910156,-4.811740398406982,-7.07132625579834
1763693856805608400,3.6616083984375,4.806358337402344,-4.791122913360596,-7.079155921936035
1763693856815196000,3.67119580078125,4.803793907165527,-4.761356830596924,-7.100944995880127
1763693856824784000,3.680783935546875,4.789290904998779,-4.721827030181885,-7.137046813964844
1763693856834371000,3.69037109375,4.76488733291626,-4.671910762786865,-7.186061382293701
1763693856843957500,3.69995751953125,4.736291885375977,-4.611700057983398,-7.243628025054932
1763693856853545000,3.709544921875,4.707787036895752,-4.541441917419434,-7.306328296661377
1763693856863133000,3.7191328125,4.6830315589904785,-4.462403297424316,-7.370655536651611
1763693856872720100,3.72872021484375,4.6662187576293945,-4.3776164054870605,-7.431907653808594
1763693856882306600,3.738306640625,4.65597677230835,-4.291372299194336,-7.488417148590088
1763693856891894000,3.74789404296875,4.644471645355225,-4.209829330444336,-7.541658401489258
1763693856901482000,3.75748193359375,4.62474250793457,-4.138706684112549,-7.592973709106445
1763693856911069200,3.767069091796875,4.593347072601318,-4.081306457519531,-7.6429362297058105
1763693856920655600,3.776655517578125,4.549353122711182,-4.038275241851807,-7.691951274871826
1763693856930242800,3.786242919921875,4.494900226593018,-4.006990909576416,-7.740172863006592
1763693856939831000,3.7958310546875,4.43427848815918,-3.9818193912506104,-7.78798246383667
1763693856949418200,3.805418212890625,4.373703956604004,-3.954253911972046,-7.8361334800720215
1763693856959004700,3.815004638671875,4.318696975708008,-3.9158525466918945,-7.885768890380859
1763693856968592000,3.824591796875,4.271702766418457,-3.8632731437683105,-7.937131881713867
1763693856978179800,3.834179931640625,4.231337547302246,-3.7989747524261475,-7.989615440368652
1763693856987767300,3.843767333984375,4.193604469299316,-3.728262424468994,-8.042643547058105
1763693856997353700,3.853353759765625,4.154698371887207,-3.6574602127075195,-8.095173835754395
1763693857006941000,3.86294091796875,4.112864017486572,-3.592397451400757,-8.145515441894531
1763693857016529000,3.87252880859375,4.0629448890686035,-3.5386948585510254,-8.193931579589844
1763693857026116000,3.8821162109375,4.0006489753723145,-3.500173568725586,-8.24099349975586
1763693857035702800,3.891702880859375,3.9268410205841064,-3.4771041870117188,-8.286136627197266
1763693857045290000,3.9012900390625,3.843689441680908,-3.4675815105438232,-8.329005241394043
1763693857054878000,3.9108779296875,3.7593653202056885,-3.4662275314331055,-8.367964744567871
1763693857064465200,3.920465087890625,3.69376802444458,-3.4629456996917725,-8.398480415344238
1763693857074051600,3.930051513671875,3.6578500270843506,-3.448922872543335,-8.419943809509277
1763693857083639000,3.93963916015625,3.6427695751190186,-3.425403356552124,-8.436067581176758
1763693857093227000,3.94922705078125,3.643228530883789,-3.404512643814087,-8.444321632385254
1763693857112400600,3.968400634765625,3.6704211235046387,-3.3819544315338135,-8.441610336303711
1763693857121988000,3.977988037109375,3.685859441757202,-3.372772216796875,-8.438556671142578
1763693857131576000,3.987576171875,3.6980600357055664,-3.365203857421875,-8.436239242553711
1763693857141163300,3.997163330078125,3.7198803424835205,-3.3667399883270264,-8.42602825164795
1763693857150749700,4.006749755859375,3.7522552013397217,-3.3768296241760254,-8.407614707946777
1763693857160337000,4.0163369140625,3.7828891277313232,-3.3973207473754883,-8.385603904724121
1763693857169925000,4.025925048828125,3.8092832565307617,-3.429650068283081,-8.360457420349121
1763693857179512300,4.03551220703125,3.836651563644409,-3.4677734375,-8.332168579101562
1763693857189098800,4.0450986328125,3.869661569595337,-3.506671905517578,-8.300564765930176
1763693857198686000,4.05468603515625,3.9140517711639404,-3.544273853302002,-8.26369857788086
1763693857208274000,4.06427392578125,3.9722354412078857,-3.5824079513549805,-8.219372749328613
1763693857217861400,4.073861328125,4.042394161224365,-3.620527505874634,-8.168305397033691
1763693857227447800,4.08344775390625,4.1194376945495605,-3.652195692062378,-8.115546226501465
1763693857237035000,4.093034912109375,4.19927453994751,-3.670198917388916,-8.066357612609863
1763693857246623000,4.102623046875,4.280288219451904,-3.6781365871429443,-8.020026206970215
1763693857256210400,4.11221044921875,4.356683731079102,-3.693678140640259,-7.971602916717529
1763693857265796900,4.121796875,4.421014785766602,-3.7324841022491455,-7.917927265167236
1763693857275384000,4.131384033203125,4.462710857391357,-3.8174691200256348,-7.853758335113525
1763693857284972000,4.140971923828125,4.476276397705078,-3.946141242980957,-7.7821149826049805
1763693857294559200,4.150559326171875,4.473421096801758,-4.06925106048584,-7.720109939575195
1763693857304145700,4.160145751953125,4.447782039642334,-4.163591384887695,-7.684537410736084
1763693857313733000,4.169733154296875,4.3964762687683105,-4.239243507385254,-7.672691822052002
1763693857323321000,4.179321044921875,4.329843044281006,-4.3172454833984375,-7.667087078094482
1763693857332908300,4.188908203125,4.246157169342041,-4.41508150100708,-7.658171653747559
1763693857352082200,4.208082275390625,3.9182984828948975,-4.738382816314697,-7.639702320098877
1763693857361670100,4.217670166015625,3.6673641204833984,-4.978442668914795,-7.611566543579102
1763693857371257300,4.22725732421875,3.3955283164978027,-5.259767532348633,-7.548220634460449
1763693857380843800,4.23684375,3.129042387008667,-5.569076061248779,-7.4407572746276855
1763693857390431200,4.24643115234375,2.890132427215576,-5.892900466918945,-7.286375045776367
1763693857400019200,4.256019287109375,2.6996660232543945,-6.213313579559326,-7.090622425079346
1763693857409606400,4.2656064453125,2.5661330223083496,-6.518187046051025,-6.862840175628662
1763693857419192800,4.27519287109375,2.4587082862854004,-6.820700168609619,-6.603270530700684
1763693857428780000,4.284780029296875,2.339501142501831,-7.0941338539123535,-6.353769779205322
1763693857438368300,4.2943681640625,2.271733045578003,-7.294683933258057,-6.14794397354126
1763693857447955500,4.30395556640625,2.2962725162506104,-7.405447483062744,-6.004737377166748
1763693857457542000,4.3135419921875,2.364987373352051,-7.459331035614014,-5.910634517669678
1763693857467129000,4.323129150390625,2.414158582687378,-7.490685939788818,-5.850799083709717
1763693857476717000,4.332717041015625,2.4180102348327637,-7.525881290435791,-5.803853988647461
1763693857486304500,4.342304443359375,2.3590540885925293,-7.588399410247803,-5.746428966522217
1763693857495891000,4.351890869140625,2.242074966430664,-7.677522659301758,-5.674428939819336
1763693857505478100,4.36147802734375,2.092935085296631,-7.7857489585876465,-5.583199977874756
1763693857515066000,4.371066162109375,1.9455955028533936,-7.909501075744629,-5.461211204528809
1763693857524653600,4.380653564453125,1.834188461303711,-8.037798881530762,-5.310359954833984
1763693857534239700,4.39023974609375,1.7686874866485596,-8.157858848571777,-5.146986484527588
1763693857543827200,4.3998271484375,1.7338616847991943,-8.256000518798828,-5.000256061553955
1763693857553415200,4.409415283203125,1.7090160846710205,-8.325643539428711,-4.892168045043945
1763693857563002400,4.41900244140625,1.6906261444091797,-8.372869491577148,-4.817387580871582
1763693857572588800,4.4285888671875,1.6717380285263062,-8.4060697555542,-4.765887260437012
1763693857582176300,4.43817626953125,1.627789855003357,-8.43504524230957,-4.729766845703125
1763693857591764200,4.44776416015625,1.5433471202850342,-8.469423294067383,-4.696523189544678
1763693857601351400,4.457351318359375,1.4271060228347778,-8.516731262207031,-4.647477626800537
1763693857610937900,4.466937744140625,1.2793477773666382,-8.58609676361084,-4.5620832443237305
1763693857620525300,4.476525390625,1.0961748361587524,-8.679075241088867,-4.431979656219482
1763693857630113300,4.48611328125,0.8783261775970459,-8.786589622497559,-4.2655348777771
1763693857639700500,4.495700439453125,0.64725261926651,-8.895977973937988,-4.075908184051514
1763693857649287000,4.505286865234375,0.4283255636692047,-9.004411697387695,-3.8610217571258545
1763693857658874000,4.5148740234375,0.23563340306282043,-9.116921424865723,-3.6050782203674316
1763693857668462300,4.52446240234375,0.07828635722398758,-9.231595993041992,-3.307853937149048
1763693857678049500,4.534049560546875,0.0005377818597480655,-9.32354736328125,-3.0400424003601074
1763693857687636000,4.543635986328125,-0.008249376900494099,-9.370244026184082,-2.8928959369659424
1763693857697223200,4.55322314453125,-0.019262386485934258,-9.385433197021484,-2.8431742191314697
1763693857706811400,4.562811279296875,-0.04978073015809059,-9.39230728149414,-2.8200128078460693
1763693857716398600,4.572398681640625,-0.0931720957159996,-9.394349098205566,-2.812098741531372
1763693857725985000,4.581985107421875,-0.1407727152109146,-9.391115188598633,-2.8209075927734375
1763693857735572200,4.591572265625,-0.18381813168525696,-9.381142616271973,-2.8514485359191895
1763693857745160200,4.60116015625,-0.2276051640510559,-9.364412307739258,-2.9028193950653076
1763693857754747600,4.61074755859375,-0.27910566329956055,-9.345085144042969,-2.9600448608398438
1763693857764334000,4.620333984375,-0.3262825608253479,-9.329891204833984,-3.0028433799743652
1763693857773921300,4.62992138671875,-0.35679948329925537,-9.322332382202148,-3.0227766036987305
1763693857783509200,4.63950927734375,-0.3597595989704132,-9.320734024047852,-3.0273542404174805
1763693857793096700,4.6490966796875,-0.3056742548942566,-9.323430061340332,-3.024994134902954
1763693857802683000,4.658682861328125,-0.1677929013967514,-9.331624984741211,-3.0104830265045166
1763693857812270300,4.668270263671875,0.05326737090945244,-9.34422779083252,-2.975393295288086
1763693857821858300,4.6778583984375,0.32449546456336975,-9.356844902038574,-2.9179699420928955
1763693857831445500,4.687445556640625,0.6019977331161499,-9.364741325378418,-2.8477392196655273
1763693857841032000,4.697031982421875,0.8499257564544678,-9.365250587463379,-2.7821035385131836
1763693857850619400,4.706619384765625,1.0640902519226074,-9.35997200012207,-2.725623846054077
1763693857860207400,4.716207275390625,1.277977705001831,-9.34473705291748,-2.685711145401001
1763693857869794600,4.725794677734375,1.517411708831787,-9.312359809875488,-2.673537492752075
1763693857879381000,4.735381103515625,1.767146348953247,-9.26367473602295,-2.689221143722534
1763693857888968400,4.744968505859375,1.9932781457901,-9.207311630249023,-2.7244555950164795
1763693857898556400,4.754556396484375,2.174748659133911,-9.155533790588379,-2.7599010467529297
1763693857908143600,4.7641435546875,2.315992832183838,-9.11419677734375,-2.781724691390991
1763693857917730000,4.77372998046875,2.4405150413513184,-9.078436851501465,-2.792179584503174
1763693857927317200,4.783317138671875,2.566694974899292,-9.036809921264648,-2.81398606300354
1763693857936905500,4.792905517578125,2.6961851119995117,-8.986654281616211,-2.8532469272613525
1763693857946492700,4.80249267578125,2.824599504470825,-8.931855201721191,-2.9006905555725098
1763693857956079000,4.8120791015625,2.952108860015869,-8.878479957580566,-2.937350273132324
1763693857965666300,4.821666259765625,3.093143939971924,-8.825031280517578,-2.9532482624053955
1763693857975254500,4.831254638671875,3.2506344318389893,-8.767688751220703,-2.954893112182617
1763693857984841700,4.840841796875,3.3829376697540283,-8.713425636291504,-2.966871976852417
1763693857994428200,4.85042822265625,3.481168746948242,-8.665265083312988,-2.994163990020752
1763693858004015400,4.860015380859375,3.549107551574707,-8.621572494506836,-3.0401833057403564
1763693858013603300,4.869603271484375,3.5971624851226807,-8.57937240600586,-3.1024460792541504
1763693858023190800,4.879190673828125,3.633662223815918,-8.535956382751465,-3.1787304878234863
1763693858032777200,4.888777099609375,3.6652019023895264,-8.492378234863281,-3.2582509517669678
1763693858042364400,4.898364501953125,3.6950714588165283,-8.451545715332031,-3.3298943042755127
1763693858051952400,4.907952392578125,3.7232234477996826,-8.416458129882812,-3.3869211673736572
1763693858061539600,4.91753955078125,3.7497949600219727,-8.388896942138672,-3.4257588386535645
1763693858071126300,4.927126220703125,3.7782487869262695,-8.369344711303711,-3.442279815673828
1763693858080713500,4.93671337890625,3.812596559524536,-8.357592582702637,-3.432950258255005
1763693858090301400,4.946301513671875,3.8508450984954834,-8.354268074035645,-3.3981730937957764
1763693858099888600,4.955888671875,3.890749931335449,-8.358813285827637,-3.341062545776367
1763693858109475000,4.96547509765625,3.929553747177124,-8.369750022888184,-3.267457962036133
1763693858119062500,4.9750625,3.9637720584869385,-8.38470458984375,-3.186788558959961
1763693858128650500,4.984650390625,3.989075183868408,-8.40287971496582,-3.106330394744873
1763693858138237700,4.99423779296875,4.000755786895752,-8.424549102783203,-3.03171706199646
1763693858147824000,5.00382421875,3.999664783477783,-8.450187683105469,-2.9609789848327637
1763693858157411600,5.01341162109375,3.991171360015869,-8.478306770324707,-2.8912367820739746
1763693858166999600,5.02299951171875,3.974346399307251,-8.510005950927734,-2.8204195499420166
1763693858176586800,5.032586669921875,3.945120096206665,-8.547298431396484,-2.7477469444274902
1763693858186173200,5.042173095703125,3.9047412872314453,-8.589912414550781,-2.6714749336242676
1763693858195760400,5.051760498046875,3.85782790184021,-8.636981964111328,-2.5865182876586914
1763693858205348600,5.0613486328125,3.8093345165252686,-8.687071800231934,-2.4888036251068115
1763693858214935800,5.070935791015625,3.7591171264648438,-8.740038871765137,-2.3772132396698
1763693858224522200,5.080522216796875,3.702286958694458,-8.796802520751953,-2.25382924079895
1763693858234109400,5.090109375,3.6440858840942383,-8.85752010345459,-2.106030225753784
1763693858243697700,5.09969775390625,3.592881202697754,-8.921601295471191,-1.9148399829864502
1763693858253284900,5.109284912109375,3.5615146160125732,-8.9773588180542,-1.7008910179138184
1763693858262871300,5.118871337890625,3.565350294113159,-9.013901710510254,-1.4860148429870605
1763693858272458500,5.12845849609375,3.604743719100952,-9.029552459716797,-1.281952977180481
1763693858282046500,5.13804638671875,3.667297840118408,-9.027965545654297,-1.1032397747039795
1763693858291634000,5.147634033203125,3.7451000213623047,-9.010377883911133,-0.9786329865455627
1763693858301220400,5.157220458984375,3.830486536026001,-8.97940444946289,-0.931694507598877
1763693858310807600,5.1668076171875,3.9134058952331543,-8.940335273742676,-0.9623051285743713
1763693858320395500,5.1763955078125,3.9887442588806152,-8.897528648376465,-1.0460898876190186
1763693858329983000,5.18598291015625,4.045294284820557,-8.857365608215332,-1.1632078886032104
1763693858339569400,5.1955693359375,4.059754371643066,-8.828691482543945,-1.3202238082885742
1763693858349156600,5.205156494140625,4.012516975402832,-8.819766998291016,-1.5105626583099365
1763693858358744600,5.21474462890625,3.908782720565796,-8.827255249023438,-1.7237675189971924
1763693858368331800,5.224331787109375,3.7591261863708496,-8.846896171569824,-1.9421058893203735
1763693858377918200,5.233918212890625,3.559642791748047,-8.879196166992188,-2.1585166454315186
1763693858387505700,5.243505615234375,3.308563709259033,-8.916009902954102,-2.3934409618377686
1763693858397093600,5.25309375,3.0239882469177246,-8.947413444519043,-2.6400115489959717
1763693858406680800,5.262680908203125,2.740666151046753,-8.973530769348145,-2.8521714210510254
1763693858416267300,5.272267333984375,2.517608642578125,-9.000863075256348,-2.9692585468292236
1763693858425854700,5.281854736328125,2.4020276069641113,-9.033013343811035,-2.967374086380005
1763693858435442700,5.291442626953125,2.373739719390869,-9.07008171081543,-2.875652551651001
1763693858445030000,5.30102978515625,2.3762145042419434,-9.117218017578125,-2.7203550338745117
1763693858454616300,5.3106162109375,2.3828978538513184,-9.180451393127441,-2.4922893047332764
1763693858464203800,5.320203857421875,2.3760108947753906,-9.260581016540527,-2.1832525730133057
1763693858473791700,5.329791748046875,2.345512866973877,-9.352471351623535,-1.7889246940612793
1763693858483379000,5.33937890625,2.2855992317199707,-9.442185401916504,-1.3384908437728882
1763693858492965400,5.34896533203125,2.1863200664520264,-9.519697189331055,-0.8750690817832947
1763693858502552600,5.358552490234375,2.032794952392578,-9.582728385925293,-0.45766422152519226
1763693858512140800,5.368140869140625,1.8342338800430298,-9.632478713989258,-0.14611123502254486
1763693858521728000,5.37772802734375,1.624100923538208,-9.670783042907715,0.09293404221534729
1763693858531314400,5.387314453125,1.4193757772445679,-9.697785377502441,0.32972875237464905
1763693858540901600,5.396901611328125,1.242030143737793,-9.71088981628418,0.5712819695472717
1763693858550489900,5.40648974609375,1.0663840770721436,-9.717484474182129,0.7769821286201477
1763693858560077000,5.4160771484375,0.8613104820251465,-9.721752166748047,0.9571130871772766
1763693858569663500,5.42566357421875,0.631911039352417,-9.718510627746582,1.149619221687317
1763693858579250700,5.435250732421875,0.41310590505599976,-9.703469276428223,1.3573529720306396
1763693858588838700,5.444838623046875,0.22941599786281586,-9.683258056640625,1.5337108373641968
1763693858598426000,5.454426025390625,0.05659085884690285,-9.6632719039917,1.669838547706604
1763693858608012500,5.464012451171875,-0.13231267035007477,-9.644126892089844,1.773050308227539
1763693858617599700,5.473599853515625,-0.32833683490753174,-9.625006675720215,1.8498173952102661
1763693858627187700,5.483187744140625,-0.5232528448104858,-9.603193283081055,1.9170993566513062
1763693858636775200,5.492775146484375,-0.6728482842445374,-9.586036682128906,1.9559073448181152
1763693858646361600,5.502361572265625,-0.7572119832038879,-9.577564239501953,1.966538429260254
1763693858655948800,5.51194873046875,-0.8567633628845215,-9.561858177185059,2.001802682876587
1763693858665536800,5.521536865234375,-0.9851348400115967,-9.535292625427246,2.0683538913726807
1763693858675124000,5.5311240234375,-1.1361136436462402,-9.500030517578125,2.1515276432037354
1763693858684710400,5.54071044921875,-1.286339521408081,-9.463348388671875,2.2272744178771973
1763693858694297900,5.5502978515625,-1.410967230796814,-9.432476043701172,2.2820940017700195
1763693858703885800,5.5598857421875,-1.5063923597335815,-9.408885955810547,2.3181986808776855
1763693858713473000,5.56947314453125,-1.5730278491973877,-9.3921480178833,2.3416919708251953
1763693858723059500,5.5790595703125,-1.6100324392318726,-9.381961822509766,2.3573238849639893
1763693858732647000,5.58864697265625,-1.62201988697052,-9.3774995803833,2.3668410778045654
1763693858742235000,5.59823486328125,-1.6214693784713745,-9.376119613647461,2.372678756713867
1763693858751822000,5.607822021484375,-1.625184416770935,-9.372882843017578,2.3829047679901123
1763693858761408500,5.617408447265625,-1.6631991863250732,-9.358390808105469,2.4134390354156494
1763693858770996000,5.626995849609375,-1.7024353742599487,-9.334540367126465,2.477588415145874
1763693858780584000,5.636583984375,-1.7332459688186646,-9.30581283569336,2.562831163406372
1763693858790171100,5.646171142578125,-1.7444614171981812,-9.2776517868042,2.6556386947631836
1763693858799757600,5.655757568359375,-1.738478422164917,-9.251296043395996,2.7498347759246826
1763693858809345000,5.665344970703125,-1.7284072637557983,-9.224614143371582,2.8442020416259766
1763693858818933000,5.67493310546875,-1.7349320650100708,-9.195024490356445,2.93460750579834
1763693858828520200,5.684520263671875,-1.7590641975402832,-9.164655685424805,3.01416015625
1763693858838106600,5.694106689453125,-1.790415644645691,-9.137871742248535,3.076378583908081
1763693858847693800,5.70369384765625,-1.8216257095336914,-9.116868019104004,3.120060682296753
1763693858857282000,5.713281982421875,-1.8474876880645752,-9.10206127166748,3.1479616165161133
1763693858866869200,5.722869140625,-1.8631446361541748,-9.093184471130371,3.164344072341919
1763693858876455700,5.73245556640625,-1.8633699417114258,-9.09067153930664,3.1714231967926025
1763693858886043000,5.74204296875,-1.840894103050232,-9.096879959106445,3.166745185852051
1763693858895631000,5.751631103515625,-1.78818678855896,-9.114588737487793,3.145958662033081
1763693858905218300,5.76121826171875,-1.700493574142456,-9.144987106323242,3.1061127185821533
1763693858914804700,5.7708046875,-1.5751874446868896,-9.18678092956543,3.048316717147827
1763693858924392000,5.780391845703125,-1.4034987688064575,-9.237351417541504,2.978577136993408
1763693858933980000,5.78997998046875,-1.167790412902832,-9.295597076416016,2.8980231285095215
1763693858943567400,5.7995673828125,-0.8643314838409424,-9.357710838317871,2.8029539585113525
1763693858953153800,5.80915380859375,-0.5152787566184998,-9.417332649230957,2.686767578125
1763693858962741000,5.818740966796875,-0.14549438655376434,-9.470756530761719,2.540469169616699
1763693858972329000,5.828328857421875,0.22642865777015686,-9.515691757202148,2.3602397441864014
1763693858981916400,5.83791650390625,0.5792313814163208,-9.551152229309082,2.1471779346466064
1763693858991502800,5.8475029296875,0.894467830657959,-9.577064514160156,1.9105304479599
1763693859001090000,5.857090087890625,1.1660447120666504,-9.59333610534668,1.6669236421585083
1763693859010678000,5.866677978515625,1.40205717086792,-9.600335121154785,1.4276524782180786
1763693859020265200,5.87626513671875,1.6094297170639038,-9.599102973937988,1.1988879442214966
1763693859029852000,5.885851806640625,1.7935436964035034,-9.590965270996094,0.9833493232727051
1763693859039439000,5.895439208984375,1.9612191915512085,-9.576967239379883,0.778263509273529
1763693859049027000,5.905027099609375,2.104473829269409,-9.559603691101074,0.5962849855422974
1763693859058614300,5.9146142578125,2.2167913913726807,-9.542671203613281,0.44006624817848206
1763693859068200700,5.92420068359375,2.3086676597595215,-9.526144981384277,0.30496644973754883
1763693859077788200,5.9337880859375,2.4025139808654785,-9.506181716918945,0.17560163140296936
1763693859087376100,5.943376220703125,2.507375955581665,-9.480610847473145,0.03832541033625603
1763693859096963300,5.95296337890625,2.623319387435913,-9.448600769042969,-0.11183693259954453
1763693859106545400,5.96254541015625,2.747347354888916,-9.410017013549805,-0.2721402645111084
1763693859116132900,5.9721328125,2.875774621963501,-9.365179061889648,-0.44015854597091675
1763693859125720800,5.981720947265625,3.006941795349121,-9.314545631408691,-0.6065647602081299
1763693859135308000,5.99130810546875,3.1413233280181885,-9.259032249450684,-0.7568327188491821
1763693859144894500,6.00089453125,3.279513359069824,-9.200514793395996,-0.8750460147857666
1763693859154481700,6.010481689453125,3.4197309017181396,-9.141229629516602,-0.9559024572372437
1763693859164070000,6.02006982421875,3.5598669052124023,-9.082417488098145,-1.0037031173706055
1763693859173657000,6.029656982421875,3.6977319717407227,-9.024663925170898,-1.0259603261947632
1763693859183243500,6.039243408203125,3.8298826217651367,-8.969259262084961,-1.0270278453826904
1763693859192830700,6.048830810546875,3.955082893371582,-8.91740894317627,-1.0037508010864258
1763693859202419000,6.0584189453125,4.073132038116455,-8.869370460510254,-0.9561690092086792
1763693859212006100,6.068006103515625,4.182652950286865,-8.825682640075684,-0.8849489092826843
1763693859221592600,6.077592529296875,4.280833721160889,-8.78730583190918,-0.7925364971160889
1763693859231179800,6.0871796875,4.363671779632568,-8.755791664123535,-0.6818224787712097
1763693859240767700,6.096767822265625,4.4257025718688965,-8.733390808105469,-0.5580686330795288
1763693859250355200,6.106355224609375,4.460456371307373,-8.72305965423584,-0.42772552371025085
1763693859259941600,6.115941650390625,4.46382474899292,-8.726795196533203,-0.2961759567260742
1763693859269528800,6.12552880859375,4.432961463928223,-8.745903015136719,-0.1685834527015686
1763693859279116800,6.13511669921875,4.367419242858887,-8.780302047729492,-0.0482829287648201
1763693859288704300,6.144704345703125,4.2689409255981445,-8.828503608703613,0.06370444595813751
1763693859298290700,6.154290771484375,4.143006801605225,-8.886924743652344,0.16872799396514893
1763693859307878000,6.1638779296875,3.9975292682647705,-8.950759887695312,0.2721090614795685
1763693859317465900,6.1734658203125,3.837249755859375,-9.016755104064941,0.3794969618320465
1763693859327053000,6.183052978515625,3.664964199066162,-9.082576751708984,0.49518653750419617
1763693859336639000,6.192638916015625,3.4824960231781006,-9.146491050720215,0.6199247241020203
1763693859346226400,6.202226318359375,3.2961630821228027,-9.204986572265625,0.7575717568397522
1763693859355814400,6.211814453125,3.1231956481933594,-9.25096321105957,0.9141724705696106
1763693859365401600,6.221401611328125,3.00003981590271,-9.27302360534668,1.0868093967437744
1763693859374988000,6.230988037109375,2.938913583755493,-9.273444175720215,1.2395275831222534
1763693859384575500,6.240575439453125,2.916144371032715,-9.266822814941406,1.3388357162475586
1763693859394163500,6.25016357421875,2.9349122047424316,-9.254167556762695,1.3845794200897217
1763693859403750700,6.259750732421875,3.007648468017578,-9.230059623718262,1.3894026279449463
1763693859413337000,6.269337158203125,3.131309747695923,-9.191951751708984,1.3686944246292114
1763693859422924300,6.27892431640625,3.289304494857788,-9.141510963439941,1.335536003112793
1763693859432512500,6.288512451171875,3.4568238258361816,-9.0857572555542,1.292195439338684
1763693859442099700,6.298099609375,3.6035447120666504,-9.037052154541016,1.2314857244491577
1763693859451686100,6.30768603515625,3.7001285552978516,-9.008004188537598,1.1555445194244385
1763693859461273300,6.3172734375,3.726999282836914,-9.00501823425293,1.0906440019607544
1763693859470861600,6.326861572265625,3.685323715209961,-9.025115013122559,1.0658732652664185
1763693859480448800,6.33644873046875,3.584892511367798,-9.063690185546875,1.080954909324646
1763693859490035200,6.34603515625,3.437488555908203,-9.11691951751709,1.1116814613342285
1763693859499622400,6.355622314453125,3.2678065299987793,-9.178168296813965,1.1194028854370117
1763693859509210600,6.365210693359375,3.1107723712921143,-9.23798656463623,1.0738202333450317
1763693859518797800,6.3747978515625,3.012502908706665,-9.282157897949219,0.9678651690483093
1763693859528384300,6.38438427734375,2.9836528301239014,-9.305205345153809,0.8254459500312805
1763693859537971500,6.393971435546875,2.9871082305908203,-9.314314842224121,0.7008049488067627
1763693859557147000,6.41314697265625,2.997736692428589,-9.317474365234375,0.6071470975875854
1763693859566733300,6.4227333984375,2.981083393096924,-9.321208953857422,0.6313323378562927
1763693859576320500,6.432320556640625,2.9417343139648438,-9.329620361328125,0.6890352964401245
1763693859585908500,6.441908447265625,2.871140480041504,-9.344504356384277,0.7792219519615173
1763693859595496000,6.451495849609375,2.7586445808410645,-9.367825508117676,0.89671391248703
1763693859605082400,6.461082275390625,2.59901762008667,-9.39938735961914,1.0329642295837402
1763693859614669600,6.470669677734375,2.3978798389434814,-9.43604564666748,1.1754134893417358
1763693859624257500,6.480257568359375,2.177100896835327,-9.470803260803223,1.317011833190918
1763693859633844700,6.4898447265625,1.9645551443099976,-9.496382713317871,1.4593256711959839
1763693859643431200,6.49943115234375,1.7709182500839233,-9.510274887084961,1.6090116500854492
1763693859653018600,6.5090185546875,1.5889426469802856,-9.516596794128418,1.7549971342086792
1763693859662606600,6.518606689453125,1.414097547531128,-9.523781776428223,1.8623377084732056
1763693859672193800,6.52819384765625,1.2495675086975098,-9.53930377960205,1.9001747369766235
1763693859681780200,6.5377802734375,1.0910156965255737,-9.566213607788086,1.8621537685394287
1763693859691367700,6.54736767578125,0.9356940984725952,-9.600993156433105,1.7651625871658325
1763693859700955600,6.55695556640625,0.7803236842155457,-9.636101722717285,1.645302414894104
1763693859710542800,6.56654296875,0.6253060698509216,-9.66611099243164,1.531553864479065
1763693859720129300,6.57612939453125,0.47472089529037476,-9.688971519470215,1.438353180885315
1763693859729716700,6.585716796875,0.32887500524520874,-9.704837799072266,1.3705265522003174
1763693859739304700,6.5953046875,0.18313372135162354,-9.714559555053711,1.3282216787338257
1763693859748892000,6.604891845703125,0.037391386926174164,-9.718496322631836,1.3114233016967773
1763693859758478300,6.614478271484375,-0.10588826984167099,-9.716728210449219,1.3207430839538574
1763693859768065800,6.624065673828125,-0.24371229112148285,-9.709723472595215,1.3536089658737183
1763693859777653800,6.63365380859375,-0.37459757924079895,-9.697681427001953,1.408909559249878
1763693859787241000,6.643240966796875,-0.49685266613960266,-9.681303977966309,1.4818555116653442
1763693859796827400,6.652827392578125,-0.6100219488143921,-9.661654472351074,1.5654693841934204
1763693859806414600,6.66241455078125,-0.7138563394546509,-9.639863014221191,1.6534305810928345
1763693859816002800,6.6720029296875,-0.8081091046333313,-9.616904258728027,1.7414082288742065
1763693859825590000,6.681590087890625,-0.8953350186347961,-9.59359073638916,1.8253154754638672
1763693859835176400,6.691176513671875,-0.9790739417076111,-9.570669174194336,1.9010776281356812
1763693859844763600,6.700763671875,-1.0601342916488647,-9.548768997192383,1.9666004180908203
1763693859854352000,6.710351806640625,-1.1373367309570312,-9.528266906738281,2.022120714187622
1763693859863939000,6.71993896484375,-1.2080165147781372,-9.509184837341309,2.070380687713623
1763693859873525500,6.729525390625,-1.271612524986267,-9.490965843200684,2.115412712097168
1763693859883112700,6.73911279296875,-1.3307244777679443,-9.472407341003418,2.16172194480896
1763693859892701000,6.748700927734375,-1.3888384103775024,-9.452069282531738,2.213571786880493
1763693859902288100,6.7582880859375,-1.4484890699386597,-9.428836822509766,2.2736127376556396
1763693859911874600,6.76787451171875,-1.5108095407485962,-9.402416229248047,2.341456413269043
1763693859921461800,6.777461669921875,-1.5752639770507812,-9.37332820892334,2.4144673347473145
1763693859931049700,6.7870498046875,-1.6395186185836792,-9.342510223388672,2.48995304107666
1763693859940637200,6.79663720703125,-1.700189471244812,-9.31123161315918,2.5652921199798584
1763693859950223600,6.8062236328125,-1.7541733980178833,-9.280065536499023,2.6407630443573
1763693859959810800,6.815810791015625,-1.7979358434677124,-9.249638557434082,2.7169837951660156
1763693859969398800,6.825398681640625,-1.8288381099700928,-9.221038818359375,2.792520046234131
1763693859978986000,6.834986083984375,-1.8477622270584106,-9.19469165802002,2.8659749031066895
1763693859988572400,6.844572509765625,-1.8588778972625732,-9.171448707580566,2.932485818862915
1763693859998159600,6.85415966796875,-1.8680603504180908,-9.151873588562012,2.9872970581054688
1763693860007747800,6.863747802734375,-1.8797252178192139,-9.136736869812012,3.0260658264160156
1763693860017335000,6.8733349609375,-1.8926092386245728,-9.127978324890137,3.0444116592407227
1763693860026921500,6.88292138671875,-1.8973532915115356,-9.127923011779785,3.0416226387023926
1763693860036508700,6.8925087890625,-1.879289150238037,-9.139410018920898,3.0182535648345947
1763693860046096600,6.9020966796875,-1.826635718345642,-9.164506912231445,2.9741551876068115
1763693860055683800,6.911683837890625,-1.7419073581695557,-9.20201587677002,2.9084439277648926
1763693860065270500,6.9212705078125,-1.6329621076583862,-9.248040199279785,2.824457883834839
1763693860074857700,6.930857666015625,-1.4976582527160645,-9.299539566040039,2.7287309169769287
1763693860084445700,6.94044580078125,-1.321777105331421,-9.354972839355469,2.6282660961151123
1763693860094033200,6.950033203125,-1.0904603004455566,-9.412718772888184,2.526262044906616
1763693860103619300,6.959619384765625,-0.8005070090293884,-9.47046947479248,2.4165632724761963
1763693860113206800,6.969206787109375,-0.4649272561073303,-9.524377822875977,2.2892074584960938
1763693860122794800,6.978794677734375,-0.110349640250206,-9.571066856384277,2.1337509155273438
1763693860132382000,6.9883818359375,0.23083877563476562,-9.608796119689941,1.9463095664978027
1763693860141968400,6.997968505859375,0.5354301929473877,-9.63718318939209,1.7344684600830078
1763693860151555800,7.007555908203125,0.8006666302680969,-9.656251907348633,1.5119919776916504
1763693860161143800,7.017143798828125,1.0351448059082031,-9.66651439666748,1.2873786687850952
1763693860170731000,7.02673095703125,1.2515716552734375,-9.667941093444824,1.0652979612350464
1763693860180317400,7.0363173828125,1.4561848640441895,-9.659996032714844,0.8569608926773071
1763693860189905000,7.04590478515625,1.651654601097107,-9.642912864685059,0.6757641434669495
1763693860199492900,7.055492919921875,1.8371281623840332,-9.618916511535645,0.5213316679000854
1763693860209080000,7.065080078125,2.000652551651001,-9.59272289276123,0.383992999792099
1763693860218666500,7.07466650390625,2.152405023574829,-9.56415843963623,0.25377413630485535
1763693860228254000,7.08425390625,2.2999765872955322,-9.532243728637695,0.12972085177898407
1763693860237842000,7.093842041015625,2.440511465072632,-9.498116493225098,0.00882916059345007
1763693860247429000,7.10342919921875,2.5746946334838867,-9.46187973022461,-0.11907797306776047
1763693860257015600,7.113015625,2.698967695236206,-9.424458503723145,-0.2560136914253235
1763693860266602800,7.122602783203125,2.818295478820801,-9.384597778320312,-0.39612674713134766
1763693860276191000,7.13219091796875,2.940308094024658,-9.340067863464355,-0.5367633104324341
1763693860285778200,7.141778076171875,3.0669820308685303,-9.290153503417969,-0.6760491728782654
1763693860295364600,7.151364501953125,3.197345495223999,-9.235706329345703,-0.8056560754776001
1763693860304951800,7.160951904296875,3.330193519592285,-9.178799629211426,-0.9109584093093872
1763693860314539800,7.170539794921875,3.464730978012085,-9.121171951293945,-0.9850184917449951
1763693860324127200,7.180127197265625,3.599811553955078,-9.063681602478027,-1.0302467346191406
1763693860333713700,7.189713623046875,3.733241081237793,-9.007100105285645,-1.051403522491455
1763693860343300900,7.19930078125,3.862274646759033,-8.95266056060791,-1.0502808094024658
1763693860352888800,7.208888916015625,3.9853198528289795,-8.901687622070312,-1.0235110521316528
1763693860362476000,7.21847607421875,4.101438045501709,-8.854657173156738,-0.9714208841323853
1763693860372062500,7.2280625,4.207993030548096,-8.812145233154297,-0.8995921611785889
1763693860381650000,7.23764990234375,4.298965930938721,-8.776479721069336,-0.8140510320663452
1763693860391238000,7.24723779296875,4.36745548248291,-8.751053810119629,-0.7174814343452454
1763693860400825000,7.2568251953125,4.4061689376831055,-8.739431381225586,-0.6151525974273682
1763693860410411500,7.26641162109375,4.4098005294799805,-8.744195938110352,-0.5129148960113525
1763693860419999000,7.2759990234375,4.376233100891113,-8.76627254486084,-0.41403549909591675
1763693860429587000,7.2855869140625,4.305533409118652,-8.805181503295898,-0.31866344809532166
1763693860439174100,7.295174072265625,4.1999897956848145,-8.858911514282227,-0.2239534556865692
1763693860448760600,7.304760498046875,4.063539028167725,-8.92425537109375,-0.12535898387432098
1763693860458348000,7.31434814453125,3.901312828063965,-8.997211456298828,-0.018436167389154434
1763693860467936000,7.32393603515625,3.723071575164795,-9.071889877319336,0.09972851723432541
1763693860477523200,7.333523193359375,3.545821189880371,-9.14029598236084,0.22915035486221313
1763693860487109600,7.343109619140625,3.3910140991210938,-9.194304466247559,0.36899644136428833
1763693860496696800,7.35269677734375,3.2795867919921875,-9.227215766906738,0.522674024105072
1763693860506285000,7.36228515625,3.232339382171631,-9.233281135559082,0.6847540736198425
1763693860515872300,7.371872314453125,3.244637966156006,-9.216965675354004,0.8308088183403015
1763693860525458700,7.381458740234375,3.2578492164611816,-9.201689720153809,0.9411183595657349
1763693860535046000,7.3910458984375,3.25724720954895,-9.194366455078125,1.0120997428894043
1763693860544634000,7.400634033203125,3.2878949642181396,-9.179167747497559,1.0502393245697021
1763693860554221300,7.41022119140625,3.375790596008301,-9.14535140991211,1.066297173500061
1763693860563807700,7.419807861328125,3.5183897018432617,-9.091331481933594,1.0672388076782227
1763693860573395000,7.42939501953125,3.689568519592285,-9.025238990783691,1.0500138998031616
1763693860582983000,7.43898291015625,3.8430016040802,-8.96646785736084,1.0020828247070312
1763693860592570400,7.4485703125,3.947699785232544,-8.929038047790527,0.9264529943466187
1763693860602156800,7.45815673828125,3.9964373111724854,-8.9132719039917,0.8674452900886536
1763693860611744000,7.467743896484375,3.9840898513793945,-8.920538902282715,0.8493646383285522
1763693860621332000,7.47733203125,3.92024302482605,-8.949713706970215,0.8394589424133301
1763693860630919400,7.48691943359375,3.8151285648345947,-8.998968124389648,0.796082079410553
1763693860640505900,7.496505859375,3.6848533153533936,-9.060273170471191,0.7097114324569702
1763693860650093000,7.506093017578125,3.5531859397888184,-9.120065689086914,0.6080084443092346
1763693860659681000,7.515680908203125,3.4440231323242188,-9.167157173156738,0.5218480229377747
1763693860669268200,7.525268310546875,3.37616229057312,-9.19530200958252,0.46726763248443604
1763693860678854700,7.534854736328125,3.340031147003174,-9.209155082702637,0.45394009351730347
1763693860688442000,7.544442138671875,3.305964231491089,-9.219688415527344,0.4881937503814697
1763693860698030000,7.554030029296875,3.251746416091919,-9.234294891357422,0.5695159435272217
1763693860707617300,7.5636171875,3.1630823612213135,-9.256840705871582,0.6900718808174133
1763693860717203700,7.57320361328125,3.0353128910064697,-9.28792953491211,0.8316463232040405
1763693860726791200,7.582791259765625,2.874755859375,-9.325353622436523,0.9715746641159058
1763693860736379100,7.592379150390625,2.6888928413391113,-9.366479873657227,1.0996818542480469
1763693860745966300,7.60196630859375,2.485602855682373,-9.408441543579102,1.2138382196426392
1763693860755552800,7.611552734375,2.2731075286865234,-9.450020790100098,1.3040266036987305
1763693860765140200,7.62114013671875,2.0641565322875977,-9.490340232849121,1.3576037883758545
1763693860774728200,7.630728271484375,1.8735398054122925,-9.528324127197266,1.3679447174072266
1763693860784315400,7.6403154296875,1.7047369480133057,-9.564651489257812,1.3348019123077393
1763693860793901800,7.64990185546875,1.5461771488189697,-9.600870132446289,1.2660987377166748
1763693860803489300,7.6594892578125,1.38542902469635,-9.636320114135742,1.1799672842025757
1763693860813077200,7.6690771484375,1.2200257778167725,-9.6687650680542,1.0940265655517578
1763693860822664400,7.67866455078125,1.0542210340499878,-9.696451187133789,1.018743634223938
1763693860832251000,7.6882509765625,0.8875874280929565,-9.718927383422852,0.9617884755134583
1763693860841838000,7.697838134765625,0.7190001606941223,-9.736150741577148,0.9277926087379456
1763693860851426300,7.70742626953125,0.5536157488822937,-9.747760772705078,0.9192739129066467
1763693860861013500,7.717013427734375,0.3966057598590851,-9.753833770751953,0.9358565211296082
1763693860870600000,7.726599853515625,0.24558492004871368,-9.754801750183105,0.9766905903816223
1763693860880187100,7.736187255859375,0.09643397480249405,-9.75080680847168,1.0406088829040527
1763693860889775000,7.745775146484375,-0.050167761743068695,-9.741825103759766,1.1245903968811035
1763693860899362600,7.755362548828125,-0.19092963635921478,-9.728425025939941,1.2213423252105713
1763693860908949000,7.764948974609375,-0.32568976283073425,-9.711246490478516,1.3251441717147827
1763693860918536200,7.7745361328125,-0.4535641372203827,-9.69113826751709,1.4305660724639893
1763693860928124200,7.784124267578125,-0.5716028213500977,-9.669317245483398,1.5323045253753662
1763693860937711600,7.793711669921875,-0.6783641576766968,-9.64698314666748,1.6266348361968994
1763693860947298000,7.803298095703125,-0.7738049030303955,-9.625151634216309,1.7111597061157227
1763693860956885200,7.81288525390625,-0.8598330616950989,-9.604328155517578,1.7854807376861572
1763693860966473200,7.82247314453125,-0.939277708530426,-9.584441184997559,1.8511157035827637
1763693860976060400,7.832060302734375,-1.0145395994186401,-9.564817428588867,1.911902666091919
1763693860985646800,7.841646728515625,-1.0867975950241089,-9.544493675231934,1.9727877378463745
1763693860995234300,7.851234375,-1.1562846899032593,-9.522600173950195,2.0380053520202637
1763693861004822300,7.860822265625,-1.2230709791183472,-9.498587608337402,2.109816074371338
1763693861014409500,7.870409423828125,-1.2882907390594482,-9.472310066223145,2.18770170211792
1763693861023996000,7.879995849609375,-1.3526828289031982,-9.44413948059082,2.269113302230835
1763693861033583400,7.889583251953125,-1.4153079986572266,-9.414973258972168,2.3506529331207275
1763693861043171300,7.89917138671875,-1.4735081195831299,-9.385724067687988,2.430504322052002
1763693861052758500,7.908758544921875,-1.5242778062820435,-9.357207298278809,2.5079140663146973
1763693861071932400,7.927932373046875,-1.5977259874343872,-9.304437637329102,2.6542606353759766
1763693861081520400,7.937520263671875,-1.624375820159912,-9.279452323913574,2.7246172428131104
1763693861091107600,7.947107666015625,-1.6520804166793823,-9.254344940185547,2.792508840560913
1763693861100694000,7.956694091796875,-1.685036063194275,-9.229657173156738,2.853849172592163
1763693861110281200,7.96628125,-1.724993109703064,-9.206658363342285,2.9038331508636475
1763693861119869400,7.975869384765625,-1.7681432962417603,-9.186968803405762,2.9400064945220947
1763693861129456600,7.98545654296875,-1.8063164949417114,-9.172805786132812,2.9609553813934326
1763693861139043000,7.99504296875,-1.826994776725769,-9.16668701171875,2.967209815979004
1763693861148630300,8.00463037109375,-1.8201109170913696,-9.171130180358887,2.9576940536499023
1763693861158218500,8.014218505859375,-1.784286379814148,-9.188081741333008,2.9267473220825195
1763693861167805700,8.0238056640625,-1.7278498411178589,-9.215930938720703,2.872549295425415
1763693861177392000,8.03339208984375,-1.6574786901474,-9.250725746154785,2.801287889480591
1763693861186979300,8.042979248046874,-1.571652889251709,-9.290024757385254,2.7195117473602295
1763693861196567300,8.0525673828125,-1.4606515169143677,-9.333202362060547,2.632150173187256
1763693861206154800,8.06215478515625,-1.3099745512008667,-9.37988567352295,2.5440359115600586
1763693861215741200,8.0717412109375,-1.1065049171447754,-9.42960262298584,2.455324411392212
1763693861225328400,8.081328369140625,-0.8468143939971924,-9.48122787475586,2.3578808307647705
1763693861234916400,8.090916259765624,-0.5475749969482422,-9.531725883483887,2.239807367324829
1763693861244503800,8.10050390625,-0.23298367857933044,-9.57784652709961,2.0930724143981934
1763693861254090000,8.110090087890624,0.07858021557331085,-9.617382049560547,1.9157665967941284
1763693861263677400,8.119677490234375,0.37319082021713257,-9.648982048034668,1.7112103700637817
1763693861273265400,8.129265380859374,0.6449251770973206,-9.67147445678711,1.4889729022979736
1763693861282852600,8.1388525390625,0.8956867456436157,-9.684112548828125,1.2594138383865356
1763693861292439000,8.14843896484375,1.130932331085205,-9.686641693115234,1.0297313928604126
1763693861302026500,8.158026611328125,1.3553823232650757,-9.678903579711914,0.807572066783905
1763693861311614500,8.167614501953125,1.5662866830825806,-9.66179370880127,0.6057074069976807
1763693861321201700,8.17720166015625,1.7647840976715088,-9.636983871459961,0.4294888973236084
1763693861330788000,8.1867880859375,1.9418941736221313,-9.608579635620117,0.2731839418411255
1763693861340375600,8.19637548828125,2.0892224311828613,-9.580622673034668,0.1311931014060974
1763693861349963500,8.205963623046875,2.2196102142333984,-9.552157402038574,-0.0017238869331777096
1763693861359550700,8.21555078125,2.340970754623413,-9.522315979003906,-0.12550264596939087
1763693861369137200,8.22513720703125,2.4599571228027344,-9.489888191223145,-0.24704022705554962
1763693861378724600,8.234724609375,2.5802130699157715,-9.453887939453125,-0.36996322870254517
1763693861388312600,8.2443125,2.7052464485168457,-9.41306209564209,-0.4962655007839203
1763693861397899800,8.253899658203125,2.8376808166503906,-9.366349220275879,-0.6240578889846802
1763693861407486200,8.263486328125,2.978041887283325,-9.313274383544922,-0.7513806223869324
1763693861417073700,8.27307373046875,3.118241548538208,-9.256989479064941,-0.868972659111023
1763693861426661600,8.28266162109375,3.258584499359131,-9.198861122131348,-0.965903103351593
1763693861436248800,8.292248779296875,3.400611162185669,-9.140242576599121,-1.0306310653686523
1763693861445835300,8.301835205078126,3.5458428859710693,-9.081082344055176,-1.0636358261108398
1763693861455422500,8.31142236328125,3.6946048736572266,-9.020843505859375,-1.0698899030685425
1763693861465010700,8.3210107421875,3.8463993072509766,-8.95914363861084,-1.053252100944519
1763693861474598000,8.330597900390625,3.998159646987915,-8.896743774414062,-1.0163958072662354
1763693861484184300,8.340184326171874,4.14492654800415,-8.835644721984863,-0.959876537322998
1763693861493771500,8.349771484375,4.280816555023193,-8.778548240661621,-0.8843559622764587
1763693861503359500,8.359359375,4.398904323577881,-8.728601455688477,-0.7946966886520386
1763693861512947000,8.368947021484376,4.4910783767700195,-8.689714431762695,-0.699633002281189
1763693861522533400,8.378533447265625,4.551130294799805,-8.665547370910645,-0.6048789620399475
1763693861532120600,8.38812060546875,4.575833320617676,-8.658467292785645,-0.5129130482673645
1763693861541708500,8.39770849609375,4.56583309173584,-8.66856861114502,-0.4236508905887604
1763693861551296000,8.4072958984375,4.523985862731934,-8.694302558898926,-0.336221843957901
1763693861560882200,8.416882080078125,4.453250408172607,-8.73359489440918,-0.2515333294868469
1763693861570469600,8.4264697265625,4.35668420791626,-8.784088134765625,-0.1716783046722412
1763693861580057600,8.4360576171875,4.236186981201172,-8.843953132629395,-0.0980663150548935
1763693861589644800,8.445644775390624,4.093062400817871,-8.911589622497559,-0.028255678713321686
1763693861599231500,8.4552314453125,3.9293768405914307,-8.984901428222656,0.04404826462268829
1763693861608818700,8.464818603515624,3.751619815826416,-9.059797286987305,0.12571820616722107
1763693861618406700,8.47440673828125,3.570547342300415,-9.13086986541748,0.2209247499704361
1763693861627993900,8.483993896484375,3.3981807231903076,-9.193097114562988,0.331236332654953
1763693861637580300,8.493580322265625,3.2529942989349365,-9.23974895477295,0.4641575813293457
1763693861647167700,8.503167724609375,3.1698126792907715,-9.25899887084961,0.6273889541625977
1763693861656755700,8.512755615234376,3.1605560779571533,-9.248075485229492,0.8089367151260376
1763693861666343000,8.522343017578125,3.1809823513031006,-9.226430892944336,0.9616317749023438
1763693861675929300,8.531929443359376,3.221510410308838,-9.202950477600098,1.0478391647338867
1763693861685516800,8.541516845703125,3.298682928085327,-9.174149513244629,1.060228943824768
1763693861695104800,8.551104736328124,3.412766933441162,-9.136309623718262,1.0252997875213623
1763693861704692000,8.56069189453125,3.5543882846832275,-9.08763313293457,0.9755226969718933
1763693861714278400,8.5702783203125,3.708298444747925,-9.030808448791504,0.9292014241218567
1763693861723865900,8.579865966796875,3.8503637313842773,-8.97583293914795,0.8828881978988647
1763693861733453800,8.589453857421875,3.9488494396209717,-8.93835735321045,0.8262810707092285
1763693861743041000,8.599041015625,3.986569404602051,-8.926547050476074,0.7709819674491882
1763693861752627500,8.60862744140625,3.963935613632202,-8.938823699951172,0.745007336139679
1763693861762214700,8.618214599609376,3.8806917667388916,-8.974578857421875,0.7533586025238037
1763693861771803000,8.627802978515625,3.7437057495117188,-9.030447959899902,0.7785000205039978
1763693861781390000,8.63739013671875,3.569714069366455,-9.099023818969727,0.7970519065856934
1763693861790976500,8.6469765625,3.3788669109344482,-9.17207145690918,0.7916824221611023
1763693861800563700,8.656563720703126,3.214585542678833,-9.234150886535645,0.7531809210777283
1763693861810152000,8.66615185546875,3.1190555095672607,-9.272058486938477,0.6861589550971985
1763693861819739100,8.6757392578125,3.086045742034912,-9.288190841674805,0.6133548617362976
1763693861829325600,8.68532568359375,3.077873945236206,-9.293950080871582,0.5653175711631775
1763693861838912800,8.694912841796874,3.069981336593628,-9.296926498413086,0.5592577457427979
1763693861848500700,8.704500732421875,3.054060697555542,-9.300117492675781,0.5923775434494019
1763693861858088200,8.714088134765625,3.0230135917663574,-9.306133270263672,0.6539599299430847
1763693861867674600,8.723674560546876,2.9640257358551025,-9.319012641906738,0.7354823350906372
1763693861877261800,8.73326171875,2.873009204864502,-9.339415550231934,0.8315803408622742
1763693861886849800,8.742849853515626,2.7514467239379883,-9.366106986999512,0.9359241724014282
1763693861896437200,8.752437255859375,2.6039955615997314,-9.396903991699219,1.0429760217666626
1763693861906023400,8.7620234375,2.4402663707733154,-9.428844451904297,1.1455848217010498
1763693861915611000,8.77161083984375,2.2710490226745605,-9.460172653198242,1.2320071458816528
1763693861925198800,8.78119873046875,2.1024720668792725,-9.490865707397461,1.2936244010925293
1763693861934786000,8.7907861328125,1.939554214477539,-9.521169662475586,1.3250799179077148
1763693861944372700,8.800372802734374,1.787235140800476,-9.551255226135254,1.3227638006210327
1763693861953960000,8.8099599609375,1.6448756456375122,-9.582097053527832,1.2838190793991089
1763693861963548000,8.8195478515625,1.5056231021881104,-9.614007949829102,1.2142237424850464
1763693861973135000,8.829135009765626,1.3634707927703857,-9.645478248596191,1.1296395063400269
1763693861982721500,8.838721435546875,1.2183951139450073,-9.674220085144043,1.0465970039367676
1763693861992309000,8.84830908203125,1.0715161561965942,-9.699073791503906,0.974786639213562
1763693862001897000,8.85789697265625,0.9216602444648743,-9.719654083251953,0.921545147895813
1763693862011484200,8.867484130859374,0.7666295170783997,-9.735971450805664,0.8908054232597351
1763693862021070600,8.877070556640625,0.6091616153717041,-9.747655868530273,0.8845970034599304
1763693862030658000,8.886657958984374,0.45398393273353577,-9.754420280456543,0.9030937552452087
1763693862040246000,8.89624609375,0.3065413236618042,-9.756307601928711,0.9438682198524475
1763693862049833200,8.905833251953124,0.16934163868427277,-9.753626823425293,1.0042259693145752
1763693862059419600,8.915419677734375,0.041568268090486526,-9.746827125549316,1.080749750137329
1763693862069007000,8.925007080078124,-0.0782700777053833,-9.7364501953125,1.1686714887619019
1763693862078595000,8.934594970703126,-0.19158951938152313,-9.723060607910156,1.2632439136505127
1763693862088182300,8.944182373046875,-0.3019934594631195,-9.70706558227539,1.360905647277832
1763693862097768700,8.953768798828126,-0.4126397967338562,-9.688894271850586,1.457883358001709
1763693862107356200,8.963356201171875,-0.5233725309371948,-9.669123649597168,1.5506491661071777
1763693862116944100,8.972944091796874,-0.6327401399612427,-9.648305892944336,1.6371365785598755
1763693862126531300,8.98253125,-0.7387790679931641,-9.62685489654541,1.7170519828796387
1763693862136117800,8.99211767578125,-0.8395195603370667,-9.60504150390625,1.7913024425506592
1763693862145705000,9.001705078125,-0.9334650635719299,-9.583053588867188,1.861210823059082
1763693862155293200,9.011293212890624,-1.0188711881637573,-9.560887336730957,1.9291760921478271
1763693862164880400,9.02088037109375,-1.0948195457458496,-9.538422584533691,1.9975628852844238
1763693862174466800,9.030466796875,-1.163818359375,-9.515140533447266,2.068333625793457
1763693862184054000,9.040053955078125,-1.2291306257247925,-9.490674018859863,2.1416664123535156
1763693862193642200,9.049642333984375,-1.2918429374694824,-9.46543025970459,2.215212821960449
1763693862203229400,9.0592294921875,-1.3490819931030273,-9.440666198730469,2.2856457233428955
1763693862212816000,9.06881591796875,-1.3970504999160767,-9.417083740234375,2.353119134902954
1763693862222403000,9.078403076171876,-1.430708646774292,-9.395121574401855,2.419743537902832
1763693862231991000,9.087990966796875,-1.449712872505188,-9.374126434326172,2.4888696670532227
1763693862241578500,9.09757861328125,-1.458330750465393,-9.352723121643066,2.563246726989746
1763693862251165000,9.1071650390625,-1.4635289907455444,-9.329801559448242,2.6425869464874268
1763693862260752100,9.116752197265624,-1.4722084999084473,-9.305398941040039,2.7225990295410156
1763693862270340000,9.126340087890625,-1.4877407550811768,-9.280984878540039,2.7964882850646973
1763693862279927600,9.135927490234375,-1.5100915431976318,-9.258633613586426,2.8579182624816895
1763693862289514000,9.145513916015625,-1.5367021560668945,-9.24072551727295,2.901365280151367
1763693862299101200,9.15510107421875,-1.5587009191513062,-9.230303764343262,2.9227242469787598
1763693862308689200,9.164689208984376,-1.567538857460022,-9.230912208557129,2.916072130203247
1763693862318276400,9.1742763671875,-1.5574296712875366,-9.24506664276123,2.8763763904571533
1763693862327863000,9.183863037109376,-1.527601718902588,-9.272740364074707,2.802342414855957
1763693862337450200,9.1934501953125,-1.4769073724746704,-9.3109130859375,2.701118230819702
1763693862347038200,9.2030380859375,-1.4021176099777222,-9.35578727722168,2.583348512649536
1763693862356625400,9.21262548828125,-1.3027467727661133,-9.404062271118164,2.457000255584717
1763693862366211800,9.2222119140625,-1.1790869235992432,-9.454070091247559,2.3239383697509766
1763693862375799300,9.23179931640625,-1.0276072025299072,-9.505459785461426,2.1818907260894775
1763693862385387300,9.24138720703125,-0.8367941379547119,-9.557971000671387,2.028632402420044
1763693862394974500,9.250974365234375,-0.5973895788192749,-9.60957145690918,1.862704873085022
1763693862404561000,9.260560791015624,-0.3153216540813446,-9.655559539794922,1.6855647563934326
1763693862414148400,9.2701484375,-0.006768431048840284,-9.690065383911133,1.5076401233673096
1763693862423736300,9.279736328125,0.31122010946273804,-9.710003852844238,1.3376730680465698
1763693862433323500,9.289323486328126,0.6259503364562988,-9.715526580810547,1.1777547597885132
1763693862442910000,9.298909912109375,0.930701732635498,-9.708333969116211,1.0258827209472656
1763693862452497400,9.308497314453126,1.2230077981948853,-9.690253257751465,0.8795580863952637
1763693862462085400,9.31808544921875,1.5011959075927734,-9.662866592407227,0.7387954592704773
1763693862471672600,9.327672607421874,1.7604680061340332,-9.62857437133789,0.6014153361320496
1763693862481259000,9.337259033203125,1.992104172706604,-9.590608596801758,0.47130244970321655
1763693862490846500,9.346846435546874,2.188430070877075,-9.552505493164062,0.36165866255760193
1763693862500434400,9.356434326171875,2.3501791954040527,-9.516804695129395,0.2783322036266327
1763693862510021600,9.366021728515625,2.4944939613342285,-9.481678009033203,0.21368703246116638
1763693862519608000,9.375608154296875,2.629481077194214,-9.446104049682617,0.16530850529670715
1763693862529195300,9.3851953125,2.7642574310302734,-9.40821361541748,0.12161340564489365
1763693862538783500,9.394783447265626,2.904099464416504,-9.366572380065918,0.0624859444797039
1763693862548370700,9.40437060546875,3.0455660820007324,-9.321696281433105,-0.029960785061120987
1763693862557957000,9.41395703125,3.1813178062438965,-9.274957656860352,-0.15737847983837128
1763693862567544300,9.42354443359375,3.307713270187378,-9.226840019226074,-0.3079737722873688
1763693862577132500,9.433132568359374,3.4269607067108154,-9.176547050476074,-0.4661822021007538
1763693862586719700,9.4427197265625,3.5432636737823486,-9.123880386352539,-0.6086640357971191
1763693862596306200,9.45230615234375,3.660677433013916,-9.069092750549316,-0.7220626473426819
1763693862605893400,9.461893310546875,3.7836644649505615,-9.011526107788086,-0.8041579723358154
1763693862615481600,9.471481689453125,3.9132277965545654,-8.95103931427002,-0.8578519225120544
1763693862625068800,9.48106884765625,4.0481648445129395,-8.887839317321777,-0.8882960081100464
1763693862634655200,9.4906552734375,4.183013916015625,-8.824131965637207,-0.8985998034477234
1763693862644242400,9.500242431640626,4.310865879058838,-8.763134956359863,-0.8912241458892822
1763693862653830400,9.509830322265625,4.42532205581665,-8.708280563354492,-0.8676191568374634
1763693862663417900,9.51941796875,4.521016597747803,-8.662652015686035,-0.8302201628684998
1763693862673004300,9.52900439453125,4.593120098114014,-8.629027366638184,-0.7832677960395813
1763693862682591500,9.538591552734376,4.638530731201172,-8.609430313110352,-0.7294648885726929
1763693862692179700,9.5481796875,4.655195236206055,-8.60528564453125,-0.6697895526885986
1763693862701767000,9.557766845703124,4.6423726081848145,-8.617055892944336,-0.6042544841766357
1763693862711353300,9.567353271484375,4.600166320800781,-8.64421558380127,-0.5351459980010986
1763693862720940500,9.5769404296875,4.528132438659668,-8.686087608337402,-0.4672035276889801
1763693862730528500,9.586528564453126,4.4259514808654785,-8.741738319396973,-0.40418291091918945
1763693862740116000,9.596115966796875,4.292903900146484,-8.810221672058105,-0.3483566641807556
1763693862749702400,9.605702392578126,4.1288161277771,-8.890128135681152,-0.2981719374656677
1763693862759289600,9.61528955078125,3.9375381469726562,-8.978032112121582,-0.24719732999801636
1763693862768877600,9.624877685546876,3.727893114089966,-9.068552017211914,-0.18591995537281036
1763693862778465000,9.634465087890625,3.5133979320526123,-9.155083656311035,-0.10428743809461594
1763693862788051500,9.644051513671876,3.306966781616211,-9.232244491577148,-0.0015198081964626908
1763693862797638700,9.653638671875,3.129856586456299,-9.29289722442627,0.1282190978527069
1763693862807226600,9.6632265625,3.0289499759674072,-9.322393417358398,0.2980238199234009
1763693862816814000,9.67281396484375,3.019049644470215,-9.317771911621094,0.48460814356803894
1763693862826400300,9.682400146484374,3.0630850791931152,-9.295014381408691,0.6249920725822449
1763693862835987700,9.69198779296875,3.1537070274353027,-9.260522842407227,0.683533251285553
1763693862845575700,9.70157568359375,3.2933783531188965,-9.21284008026123,0.6690452098846436
1763693862855163000,9.711162841796876,3.4698240756988525,-9.150506973266602,0.6316226720809937
1763693862864749300,9.720749267578125,3.6685452461242676,-9.074478149414062,0.6050059795379639
1763693862874336800,9.730336669921876,3.867640495300293,-8.992387771606445,0.5905218720436096
1763693862883924700,9.7399248046875,4.03320837020874,-8.920827865600586,0.5678431391716003
1763693862893512000,9.749511962890624,4.132044315338135,-8.87839412689209,0.5203040838241577
1763693862903098400,9.759098388671875,4.153785228729248,-8.87092113494873,0.4724685847759247
1763693862912685800,9.768685791015624,4.108401298522949,-8.893038749694824,0.4530673623085022
1763693862922273800,9.778273681640625,4.003196716308594,-8.940383911132812,0.4629509449005127
1763693862931861000,9.787861083984374,3.8397464752197266,-9.010395050048828,0.4894171953201294
1763693862951035000,9.807034912109375,3.4069511890411377,-9.181275367736816,0.5169742703437805
1763693862960622800,9.816622802734376,3.2195825576782227,-9.250125885009766,0.4897457957267761
1763693862970210000,9.8262099609375,3.087524652481079,-9.297733306884766,0.43558886647224426
1763693862979796500,9.83579638671875,3.0091989040374756,-9.326070785522461,0.3735034167766571
1763693862989384000,9.845384033203125,2.958890676498413,-9.343789100646973,0.33009350299835205
1763693862998972000,9.854971923828124,2.9061195850372314,-9.360518455505371,0.32487794756889343
1763693863008559000,9.86455908203125,2.836818218231201,-9.380779266357422,0.35190147161483765
1763693863018145500,9.8741455078125,2.7457706928253174,-9.405773162841797,0.40321093797683716
1763693863027733000,9.88373291015625,2.6311194896698,-9.43514633178711,0.47498998045921326
1763693863037321000,9.893321044921874,2.485084295272827,-9.469003677368164,0.576804518699646
1763693863046908200,9.902908203125,2.301569938659668,-9.505570411682129,0.7192215919494629
1763693863056494600,9.91249462890625,2.105996608734131,-9.538686752319336,0.8652355670928955
1763693863066082000,9.92208203125,1.919274091720581,-9.567244529724121,0.9770305752754211
1763693863075670000,9.931669921875,1.746916651725769,-9.591446876525879,1.059633731842041
1763693863085257200,9.94125732421875,1.598098635673523,-9.610857009887695,1.1170920133590698
1763693863094843600,9.95084375,1.4663069248199463,-9.628166198730469,1.1483620405197144
1763693863104431000,9.96043115234375,1.33128821849823,-9.647565841674805,1.1500095129013062
1763693863114019000,9.97001904296875,1.1790851354599,-9.669965744018555,1.1277917623519897
1763693863123606300,9.979606201171874,1.006824254989624,-9.693441390991211,1.0926510095596313
1763693863133192700,9.989192626953125,0.8229683637619019,-9.715143203735352,1.0531420707702637
1763693863142780200,9.9987802734375,0.6391671895980835,-9.73270320892334,1.018006443977356
1763693863152368000,10.0083681640625,0.4635445773601532,-9.745052337646484,0.9947274327278137
1763693863161955300,10.017955322265625,0.29953712224960327,-9.75217342376709,0.9878044128417969
1763693863171541800,10.027541748046875,0.14681804180145264,-9.755043029785156,0.9939755201339722
1763693863181129000,10.03712890625,0.001685375813394785,-9.754382133483887,1.011141061782837
1763693863190717200,10.04671728515625,-0.14035600423812866,-9.750345230102539,1.0399333238601685
1763693863200304400,10.056304443359375,-0.2817109525203705,-9.742958068847656,1.079713225364685
1763693863209890800,10.065890869140626,-0.4234875440597534,-9.73202133178711,1.130846381187439
1763693863219478000,10.07547802734375,-0.5620478987693787,-9.717625617980957,1.1925755739212036
1763693863229066200,10.085066162109374,-0.6905878782272339,-9.700651168823242,1.2612853050231934
1763693863238653400,10.0946533203125,-0.8006119132041931,-9.682502746582031,1.3336223363876343
1763693863248239900,10.104239990234374,-0.8892353773117065,-9.664041519165039,1.409233570098877
1763693863257827000,10.1138271484375,-0.9572536945343018,-9.645781517028809,1.4875986576080322
1763693863267415300,10.123415283203125,-1.0093857049942017,-9.628031730651855,1.5660526752471924
1763693863277002500,10.13300244140625,-1.0542367696762085,-9.610657691955566,1.6414164304733276
1763693863286589000,10.1425888671875,-1.1002724170684814,-9.593113899230957,1.7122975587844849
1763693863296176000,10.152176025390625,-1.1533056497573853,-9.574701309204102,1.7791458368301392
1763693863305764400,10.161764404296875,-1.2130473852157593,-9.55473804473877,1.8455078601837158
1763693863315351600,10.1713515625,-1.2741385698318481,-9.53307819366455,1.9150415658950806
1763693863324938000,10.18093798828125,-1.3335250616073608,-9.509973526000977,1.988091230392456
1763693863334525200,10.190525146484376,-1.3900690078735352,-9.48602294921875,2.0623936653137207
1763693863344113400,10.200113525390625,-1.44236421585083,-9.462532043457031,2.13318133354187
1763693863353700600,10.20970068359375,-1.4872095584869385,-9.441061019897461,2.196580410003662
1763693863363287000,10.219287109375,-1.523720622062683,-9.422027587890625,2.2525670528411865
1763693863372874200,10.228874267578124,-1.5521125793457031,-9.404908180236816,2.304131031036377
1763693863382462500,10.23846240234375,-1.5736678838729858,-9.388517379760742,2.355778455734253
1763693863392049700,10.248049560546875,-1.5921077728271484,-9.371320724487305,2.4112095832824707
1763693863401636000,10.257635986328125,-1.610748291015625,-9.352797508239746,2.470029592514038
1763693863411223300,10.267223388671875,-1.632208228111267,-9.333630561828613,2.5277717113494873
1763693863420811500,10.2768115234375,-1.6594619750976562,-9.314787864685059,2.5790138244628906
1763693863430398700,10.286398681640625,-1.6938602924346924,-9.297327995300293,2.6193389892578125
1763693863439985200,10.295985107421876,-1.7350276708602905,-9.282086372375488,2.6463074684143066
1763693863449572400,10.305572265625,-1.7791386842727661,-9.270129203796387,2.6589038372039795
1763693863459160600,10.31516064453125,-1.8200013637542725,-9.26261043548584,2.657447338104248
1763693863468747800,10.324747802734375,-1.849556565284729,-9.261080741882324,2.642329692840576
1763693863487921400,10.34392138671875,-1.8525112867355347,-9.27939510345459,2.5751535892486572
1763693863497509400,10.35350927734375,-1.825573205947876,-9.298261642456055,2.525867223739624
1763693863507096800,10.363096923828126,-1.7780779600143433,-9.32236099243164,2.470304250717163
1763693863516683300,10.372683349609375,-1.7050796747207642,-9.351076126098633,2.4125609397888184
1763693863526270500,10.3822705078125,-1.6034214496612549,-9.383859634399414,2.3542704582214355
1763693863535858400,10.3918583984375,-1.4701935052871704,-9.420883178710938,2.2925705909729004
1763693863545446000,10.40144580078125,-1.298779845237732,-9.462750434875488,2.2225890159606934
1763693863555032300,10.4110322265625,-1.087162733078003,-9.508934020996094,2.137434720993042
1763693863574207500,10.43020751953125,-0.5655280947685242,-9.607035636901855,1.8855888843536377
1763693863583795000,10.439794921875,-0.2714148759841919,-9.651857376098633,1.7141695022583008
1763693863593381400,10.44938134765625,0.03672131896018982,-9.688516616821289,1.5171347856521606
1763693863602968600,10.458968505859374,0.34483617544174194,-9.713573455810547,1.30305814743042
1763693863612556800,10.468556884765626,0.6410137414932251,-9.725753784179688,1.0812981128692627
1763693863622144000,10.47814404296875,0.9223881363868713,-9.725027084350586,0.8622296452522278
1763693863631730400,10.48773046875,1.187598705291748,-9.712023735046387,0.6607416868209839
1763693863641317600,10.497317626953125,1.432249665260315,-9.689346313476562,0.4854182302951813
1763693863650905600,10.506905517578126,1.6481291055679321,-9.661497116088867,0.33095306158065796
1763693863660493000,10.5164931640625,1.8357350826263428,-9.631401062011719,0.19129827618598938
1763693863670079500,10.52607958984375,2.0033960342407227,-9.599573135375977,0.07071390748023987
1763693863679666700,10.535666748046875,2.1579408645629883,-9.56626033782959,-0.018577754497528076
1763693863689254700,10.545254638671874,2.310605525970459,-9.530217170715332,-0.08040627837181091
1763693863698842000,10.554842041015625,2.473604917526245,-9.488664627075195,-0.13006167113780975
1763693863708428500,10.564428466796874,2.6521835327148438,-9.43948745727539,-0.17992064356803894
1763693863718015700,10.574015625,2.8455517292022705,-9.381732940673828,-0.23734444379806519
1763693863727603700,10.583603759765625,3.045278787612915,-9.316786766052246,-0.3068242371082306
1763693863737191200,10.593191162109376,3.2414727210998535,-9.247307777404785,-0.38798844814300537
1763693863746777600,10.602777587890625,3.4253809452056885,-9.176607131958008,-0.476489782333374
1763693863756364800,10.61236474609375,3.615870237350464,-9.095550537109375,-0.6056482195854187
1763693863765952800,10.621952880859375,3.8267290592193604,-8.994030952453613,-0.7962139844894409
1763693863775540200,10.631540283203124,3.984858989715576,-8.916288375854492,-0.889430046081543
1763693863785126700,10.641126708984375,4.116650581359863,-8.855622291564941,-0.8952735066413879
1763693863794713900,10.6507138671875,4.241102695465088,-8.798698425292969,-0.8754139542579651
1763693863804301800,10.6603017578125,4.362197399139404,-8.740638732910156,-0.8618864417076111
1763693863813889300,10.66988916015625,4.47947883605957,-8.6820650100708,-0.8522897958755493
1763693863823475700,10.679475830078125,4.591243743896484,-8.625508308410645,-0.8315424919128418
1763693863833063000,10.68906298828125,4.69266414642334,-8.574614524841309,-0.7907378673553467
1763693863842651000,10.69865087890625,4.777096271514893,-8.533329963684082,-0.7294087409973145
1763693863852238300,10.70823828125,4.837447166442871,-8.505533218383789,-0.6522312164306641
1763693863861824800,10.71782470703125,4.8682990074157715,-8.494205474853516,-0.564375638961792
1763693863871412000,10.727411865234375,4.866695880889893,-8.500855445861816,-0.47023215889930725
1763693863881000000,10.737,4.832677364349365,-8.52490234375,-0.3763575851917267
1763693863890587400,10.74658740234375,4.767277240753174,-8.564939498901367,-0.2919766902923584
1763693863900173800,10.756173828125,4.671741962432861,-8.619523048400879,-0.2214365005493164
1763693863909761000,10.765760986328125,4.547469615936279,-8.687000274658203,-0.1641368567943573
1763693863919349000,10.775348876953124,4.3942060470581055,-8.766298294067383,-0.11556471139192581
1763693863928936400,10.7849365234375,4.209556579589844,-8.85694408416748,-0.06759138405323029
1763693863938523000,10.79452294921875,3.9923925399780273,-8.957180976867676,-0.010200323536992073
1763693863948110000,10.804110107421875,3.749985456466675,-9.061101913452148,0.06651963293552399
1763693863957698000,10.813697998046875,3.5003533363342285,-9.159122467041016,0.1685013771057129
1763693863967285500,10.823285400390626,3.272441864013672,-9.239664077758789,0.3001713752746582
1763693863976872000,10.832871826171875,3.116422653198242,-9.287128448486328,0.4555595815181732
1763693863986459100,10.842459228515626,3.0629329681396484,-9.296393394470215,0.6048898100852966
1763693863996047000,10.852047119140625,3.0660204887390137,-9.286808013916016,0.7246224880218506
1763693864005634600,10.861634521484374,3.102720260620117,-9.268193244934082,0.8025633692741394
1763693864015221000,10.871220947265625,3.186506509780884,-9.237271308898926,0.8302927017211914
1763693864024808200,10.88080810546875,3.308879852294922,-9.194284439086914,0.8287428617477417
1763693864034396200,10.890396240234375,3.456251859664917,-9.14073657989502,0.8195322751998901
1763693864043983600,10.899983642578125,3.6155483722686768,-9.079893112182617,0.8085376620292664
1763693864053570000,10.909570068359375,3.7595062255859375,-9.023727416992188,0.7802855968475342
1763693864063157200,10.9191572265625,3.848602056503296,-8.990874290466309,0.7230618000030518
1763693864072745200,10.9287451171875,3.875096321105957,-8.983518600463867,0.6711110472679138
1763693864082332700,10.938332763671875,3.856447219848633,-8.992610931396484,0.6566160917282104
1763693864091919000,10.947919189453126,3.7945683002471924,-9.018295288085938,0.6648293137550354
1763693864101506300,10.95750634765625,3.700108766555786,-9.056291580200195,0.6805606484413147
1763693864111094300,10.96709423828125,3.577235221862793,-9.104409217834473,0.6953513026237488
1763693864120681700,10.976681640625,3.425384998321533,-9.162847518920898,0.6923495531082153
1763693864130268200,10.98626806640625,3.27998423576355,-9.218791007995605,0.6526703834533691
1763693864139855400,10.99585546875,3.1626267433166504,-9.264303207397461,0.583828330039978
1763693864149443300,11.005443359375,3.072777032852173,-9.298629760742188,0.5137167572975159
1763693864159030800,11.01503076171875,3.0053701400756836,-9.323251724243164,0.4638104736804962
1763693864168617200,11.0246171875,2.946951389312744,-9.34289836883545,0.44285866618156433
1763693864178204400,11.034204345703126,2.8788909912109375,-9.363631248474121,0.452536016702652
1763693864187792400,11.04379248046875,2.788268804550171,-9.389155387878418,0.489617258310318
1763693864197379800,11.0533798828125,2.669633388519287,-9.420035362243652,0.5535336136817932
1763693864206966300,11.06296630859375,2.5250234603881836,-9.454296112060547,0.6410447359085083
1763693864216553500,11.072553466796874,2.3577005863189697,-9.489869117736816,0.7443234920501709
1763693864226141700,11.0821416015625,2.1737024784088135,-9.524664878845215,0.8521550893783569
1763693864235729000,11.09172900390625,1.9844368696212769,-9.556339263916016,0.9532973170280457
1763693864245315300,11.1013154296875,1.802291750907898,-9.583341598510742,1.0400426387786865
1763693864254902500,11.110902587890624,1.6338356733322144,-9.606080055236816,1.1064337491989136
1763693864264490800,11.12049072265625,1.4818087816238403,-9.625988006591797,1.1467211246490479
1763693864274078000,11.130077880859375,1.3444633483886719,-9.645476341247559,1.1522122621536255
1763693864283664400,11.139664306640626,1.2143007516860962,-9.66640853881836,1.1208951473236084
1763693864293251600,11.14925146484375,1.0803269147872925,-9.68853759765625,1.0656105279922485
1763693864302839800,11.15883984375,0.9382844567298889,-9.70987606048584,1.0041452646255493
1763693864312427000,11.168427001953125,0.7905848622322083,-9.728482246398926,0.9497308731079102
1763693864322013400,11.178013427734374,0.6384427547454834,-9.743640899658203,0.9078730344772339
1763693864331600600,11.1876005859375,0.48475921154022217,-9.75493049621582,0.8813197612762451
1763693864341188900,11.19718896484375,0.3316004276275635,-9.762022972106934,0.8736892342567444
1763693864350776000,11.206776123046875,0.18212659657001495,-9.764642715454102,0.8882380723953247
1763693864360362500,11.216362548828124,0.036777615547180176,-9.762816429138184,0.925434410572052
1763693864369949700,11.22594970703125,-0.10499758273363113,-9.75670051574707,0.9829286336898804
1763693864379538000,11.235537841796875,-0.24480293691158295,-9.746362686157227,1.0577630996704102
1763693864389125000,11.245125,-0.38035905361175537,-9.732110977172852,1.1453049182891846
1763693864398711600,11.254711669921875,-0.5075269937515259,-9.714630126953125,1.2404627799987793
1763693864408298800,11.264298828125,-0.6261534094810486,-9.694632530212402,1.3388091325759888
1763693864417887000,11.273886962890625,-0.7363448739051819,-9.673038482666016,1.4354465007781982
1763693864427474200,11.28347412109375,-0.8378719091415405,-9.650629043579102,1.527652382850647
1763693864437060600,11.293060546875,-0.9296203255653381,-9.62796688079834,1.6150667667388916
1763693864446647800,11.302647705078124,-1.0112496614456177,-9.605213165283203,1.6993048191070557
1763693864456236000,11.312236083984375,-1.0854833126068115,-9.582079887390137,1.782092571258545
1763693864465823200,11.3218232421875,-1.1584043502807617,-9.557703018188477,1.8651553392410278
1763693864475409700,11.33140966796875,-1.2329363822937012,-9.531312942504883,1.9504647254943848
1763693864484996900,11.340996826171875,-1.3074517250061035,-9.502835273742676,2.038886547088623
1763693864494585000,11.350585205078126,-1.3790446519851685,-9.4725980758667,2.1303768157958984
1763693864504172300,11.36017236328125,-1.445188045501709,-9.441424369812012,2.222912073135376
1763693864513758700,11.3697587890625,-1.5037243366241455,-9.410755157470703,2.3123340606689453
1763693864523346000,11.379345947265625,-1.5517898797988892,-9.382217407226562,2.3950657844543457
1763693864532934100,11.38893408203125,-1.5860319137573242,-9.3572359085083,2.469214916229248
1763693864542521300,11.398521240234375,-1.6046404838562012,-9.335984230041504,2.536710500717163
1763693864552107800,11.408107666015624,-1.6095980405807495,-9.317466735839844,2.600844383239746
1763693864561695200,11.4176953125,-1.6062605381011963,-9.299664497375488,2.6658124923706055
1763693864571283200,11.427283203125,-1.6016042232513428,-9.281353950500488,2.731613874435425
1763693864580870400,11.436870361328126,-1.6020523309707642,-9.262524604797363,2.7945399284362793
1763693864590456800,11.446456787109375,-1.612429141998291,-9.244074821472168,2.849130868911743
1763693864609632300,11.46563232421875,-1.6582250595092773,-9.214089393615723,2.919114589691162
1763693864619219500,11.475219482421876,-1.682435154914856,-9.205909729003906,2.9310455322265625
1763693864628806000,11.484805908203125,-1.6979466676712036,-9.204989433288574,2.924983024597168
1763693864638393300,11.494393310546876,-1.701303243637085,-9.213254928588867,2.896874189376831
1763693864647981300,11.503981201171875,-1.6915855407714844,-9.231768608093262,2.843127489089966
1763693864657568500,11.513568603515624,-1.664775013923645,-9.260727882385254,2.7636618614196777
1763693864667155000,11.523155029296875,-1.6135165691375732,-9.298074722290039,2.666975736618042
1763693864676742400,11.532742431640624,-1.53046452999115,-9.341266632080078,2.5629658699035645
1763693864686330400,11.542330322265625,-1.4123899936676025,-9.388045310974121,2.457669496536255
1763693864695917600,11.55191748046875,-1.2572442293167114,-9.438026428222656,2.348057985305786
1763693864705504000,11.56150390625,-1.0509047508239746,-9.492664337158203,2.2260515689849854
1763693864715091500,11.571091552734375,-0.7891196608543396,-9.549427032470703,2.087132692337036
1763693864724679400,11.580679443359376,-0.4862797260284424,-9.602616310119629,1.9296833276748657
1763693864734266600,11.5902666015625,-0.1566481590270996,-9.646747589111328,1.7567347288131714
1763693864743853000,11.59985302734375,0.18332946300506592,-9.678021430969238,1.5724713802337646
1763693864753440500,11.6094404296875,0.5093708038330078,-9.695535659790039,1.381124496459961
1763693864763028500,11.619028564453124,0.8036488890647888,-9.701079368591309,1.1889541149139404
1763693864772615700,11.62861572265625,1.0652554035186768,-9.696977615356445,1.002121925354004
1763693864782202400,11.638202392578124,1.3018932342529297,-9.684775352478027,0.8249808549880981
1763693864791789600,11.64778955078125,1.5209071636199951,-9.66544246673584,0.6606435775756836
1763693864801377500,11.65737744140625,1.7302677631378174,-9.639477729797363,0.5069816708564758
1763693864810965000,11.666965087890626,1.9295766353607178,-9.607919692993164,0.36739686131477356
1763693864820551400,11.676551513671875,2.1051573753356934,-9.574689865112305,0.25299307703971863
1763693864830138600,11.686138671875,2.265439748764038,-9.540078163146973,0.15834401547908783
1763693864839726600,11.6957265625,2.4239611625671387,-9.5020751953125,0.07320643961429596
1763693864849314000,11.70531396484375,2.578505516052246,-9.461588859558105,-0.006225527264177799
1763693864858900500,11.714900390625,2.730367422103882,-9.418478965759277,-0.08794094622135162
1763693864868487700,11.72448779296875,2.8802742958068848,-9.372395515441895,-0.1805592030286789
1763693864878076000,11.734075927734375,3.025003671646118,-9.323979377746582,-0.28833824396133423
1763693864887663000,11.7436630859375,3.1638729572296143,-9.273345947265625,-0.4066457152366638
1763693864897249500,11.75324951171875,3.295070171356201,-9.221358299255371,-0.5286245346069336
1763693864906836700,11.762836669921874,3.421483278274536,-9.1678466796875,-0.6437572836875916
1763693864916425000,11.772425048828126,3.547487497329712,-9.112486839294434,-0.7404751777648926
1763693864926012200,11.78201220703125,3.6761276721954346,-9.05481243133545,-0.816605269908905
1763693864935598600,11.7915986328125,3.8094303607940674,-8.994253158569336,-0.8729462623596191
1763693864945185800,11.801185791015625,3.945571184158325,-8.931551933288574,-0.9111725687980652
1763693864954774000,11.81077392578125,4.07830810546875,-8.869404792785645,-0.9335147738456726
1763693864964361200,11.820361328125,4.200502872467041,-8.811538696289062,-0.939651608467102
1763693864973947600,11.82994775390625,4.306091785430908,-8.761495590209961,-0.9295972585678101
1763693864983534800,11.839534912109375,4.391186714172363,-8.721938133239746,-0.9031401872634888
1763693864993123000,11.849123046875,4.453420639038086,-8.694685935974121,-0.8601634502410889
1763693865002710300,11.858710205078125,4.492055892944336,-8.680387496948242,-0.801688015460968
1763693865012296700,11.868296630859374,4.505978107452393,-8.679469108581543,-0.7303186058998108
1763693865021884000,11.8778837890625,4.493804931640625,-8.692214012145996,-0.6492464542388916
1763693865031472000,11.88747216796875,4.454064846038818,-8.718571662902832,-0.5640977025032043
1763693865041059300,11.897059326171876,4.385987281799316,-8.757940292358398,-0.4816529154777527
1763693865050645800,11.906645751953125,4.289023399353027,-8.809683799743652,-0.4051303267478943
1763693865060233000,11.91623291015625,4.164247512817383,-8.87231159210205,-0.33393388986587524
1763693865069821200,11.9258212890625,4.014538288116455,-8.943346977233887,-0.26534783840179443
1763693865079408400,11.935408447265624,3.843405246734619,-9.020003318786621,-0.19533197581768036
1763693865088994800,11.944994873046875,3.655714750289917,-9.09903621673584,-0.11695971339941025
1763693865098582300,11.954582275390624,3.462780475616455,-9.174909591674805,-0.023591818287968636
1763693865108170200,11.964170166015625,3.2792844772338867,-9.241717338562012,0.08567626029253006
1763693865117757400,11.97375732421875,3.124560832977295,-9.293217658996582,0.2088717520236969
1763693865127343900,11.98334375,3.0323002338409424,-9.319741249084473,0.3434738218784332
1763693865136931300,11.992931396484375,3.0225512981414795,-9.316959381103516,0.47837889194488525
1763693865146519300,12.002519287109376,3.051943778991699,-9.300666809082031,0.5946666598320007
1763693865156106500,12.0121064453125,3.083031177520752,-9.284823417663574,0.6762844324111938
1763693865165693000,12.02169287109375,3.135035514831543,-9.264392852783203,0.7162120938301086
1763693865175280400,12.0312802734375,3.2245068550109863,-9.232560157775879,0.7299132943153381
1763693865184868400,12.040868408203124,3.350940227508545,-9.18691635131836,0.7363108992576599
1763693865194455800,12.050455810546875,3.5024538040161133,-9.12988567352295,0.7405264973640442
1763693865204042000,12.0600419921875,3.654991865158081,-9.07037353515625,0.7346727848052979
1763693865213629400,12.06962939453125,3.7722911834716797,-9.024406433105469,0.7073107361793518
1763693865223217400,12.079217529296875,3.835531711578369,-9.000417709350586,0.6719774007797241
1763693865232804900,12.088804931640626,3.845705986022949,-8.997147560119629,0.6574804782867432
1763693865242391300,12.098391357421875,3.8005454540252686,-9.016100883483887,0.6604318618774414
1763693865251978500,12.107978515625,3.712779998779297,-9.053102493286133,0.653440535068512
1763693865261566500,12.11756640625,3.590374708175659,-9.104668617248535,0.6201781034469604
1763693865271154000,12.12715380859375,3.437873601913452,-9.167240142822266,0.559574544429779
1763693865280740400,12.136740234375,3.285541296005249,-9.227768898010254,0.4731628894805908
1763693865290327600,12.14632763671875,3.153852701187134,-9.278133392333984,0.37395501136779785
1763693865299915500,12.15591552734375,3.045462131500244,-9.317330360412598,0.2879505157470703
1763693865309503000,12.1655029296875,2.9598793983459473,-9.346383094787598,0.23374038934707642
1763693865319089400,12.17508935546875,2.883740186691284,-9.370388984680176,0.2241438627243042
1763693865328676600,12.184676513671874,2.8008782863616943,-9.394503593444824,0.26223093271255493
1763693865338264800,12.194264892578126,2.6963930130004883,-9.422411918640137,0.34352514147758484
1763693865347852000,12.20385205078125,2.5617613792419434,-9.454880714416504,0.46153542399406433
1763693865357438500,12.2134384765625,2.3980984687805176,-9.489632606506348,0.6052907705307007
1763693865367025700,12.223025634765625,2.214165687561035,-9.523372650146484,0.7571262121200562
1763693865376614000,12.23261376953125,2.019324541091919,-9.554259300231934,0.8993555903434753
1763693865386201000,12.242201171875,1.8230016231536865,-9.581811904907227,1.0178128480911255
1763693865395787500,12.25178759765625,1.6336779594421387,-9.606269836425781,1.1050193309783936
1763693865405375000,12.261375,1.4536514282226562,-9.629032135009766,1.1571611166000366
1763693865414963000,12.270962890625,1.2842049598693848,-9.652044296264648,1.1658695936203003
1763693865424550100,12.280550048828125,1.1228078603744507,-9.676827430725098,1.12636399269104
1763693865434136600,12.290136474609374,0.9615853428840637,-9.70247745513916,1.052461862564087
1763693865443724000,12.29972412109375,0.7961528301239014,-9.726478576660156,0.9654721617698669
1763693865453312000,12.30931201171875,0.6247833371162415,-9.746819496154785,0.8829232454299927
1763693865462899200,12.318899169921876,0.4492782950401306,-9.762345314025879,0.8155608177185059
1763693865472485600,12.328485595703125,0.27331262826919556,-9.772480010986328,0.770923376083374
1763693865482073000,12.338072998046876,0.0990251749753952,-9.777042388916016,0.7549896240234375
1763693865491661000,12.3476611328125,-0.07063983380794525,-9.776187896728516,0.7691234350204468
1763693865501248300,12.357248291015624,-0.23500855267047882,-9.77011775970459,0.8123756051063538
1763693865510834700,12.366834716796875,-0.3924786448478699,-9.759055137634277,0.8815819621086121
1763693865520422100,12.376422119140624,-0.5400407314300537,-9.743500709533691,0.9710488319396973
1763693865530010000,12.386010009765625,-0.6730770468711853,-9.724281311035156,1.0750346183776855
1763693865539597600,12.39559765625,-0.7883463501930237,-9.702408790588379,1.1883472204208374
1763693865549184000,12.40518408203125,-0.8856971859931946,-9.679169654846191,1.3036960363388062
1763693865558771200,12.414771240234375,-0.9658581614494324,-9.656248092651367,1.4122228622436523
1763693865568359200,12.424359130859376,-1.0312985181808472,-9.634754180908203,1.5094106197357178
1763693865577946600,12.433946533203125,-1.0863603353500366,-9.614852905273438,1.5952450037002563
1763693865587533000,12.443532958984376,-1.1383382081985474,-9.596041679382324,1.6704943180084229
1763693865597120300,12.453120361328125,-1.1924407482147217,-9.577777862548828,1.736272931098938
1763693865606708200,12.462708251953124,-1.2501013278961182,-9.559496879577637,1.7954516410827637
1763693865616295700,12.472295654296875,-1.3094685077667236,-9.540703773498535,1.852198600769043
1763693865625882000,12.481882080078124,-1.3679735660552979,-9.52111530303955,1.909816026687622
1763693865635469300,12.49146923828125,-1.4221056699752808,-9.500988006591797,1.9695794582366943
1763693865645057500,12.5010576171875,-1.4705510139465332,-9.48054027557373,2.031555652618408
